onset	duration	trial_type	response_time	confidence	detection	stimulus	response	key_id
26.83	4.83	NN	0.88	4	1	0	0	n/a
27.70	0	button press	n/a	n/a	n/a	n/a	n/a	51
28.85	0	button press	n/a	n/a	n/a	n/a	n/a	55
29.15	0	button press	n/a	n/a	n/a	n/a	n/a	54
29.45	0	button press	n/a	n/a	n/a	n/a	n/a	54
34.56	4.83	NN	0.95	3	1	0	0	n/a
35.51	0	button press	n/a	n/a	n/a	n/a	n/a	51
36.51	0	button press	n/a	n/a	n/a	n/a	n/a	54
36.94	0	button press	n/a	n/a	n/a	n/a	n/a	55
37.21	0	button press	n/a	n/a	n/a	n/a	n/a	55
42.09	4.83	NN	0.73	3	1	0	0	n/a
42.82	0	button press	n/a	n/a	n/a	n/a	n/a	51
44.25	0	button press	n/a	n/a	n/a	n/a	n/a	54
44.90	0	button press	n/a	n/a	n/a	n/a	n/a	54
48.98	4.83	NN	0.80	3	1	0	0	n/a
49.78	0	button press	n/a	n/a	n/a	n/a	n/a	51
51.16	0	button press	n/a	n/a	n/a	n/a	n/a	55
57.89	4.83	YY	0.82	5	1	3	1	n/a
58.70	0	button press	n/a	n/a	n/a	n/a	n/a	50
59.85	0	button press	n/a	n/a	n/a	n/a	n/a	55
60.20	0	button press	n/a	n/a	n/a	n/a	n/a	55
66.56	4.83	YY	0.87	3	1	1	1	n/a
67.43	0	button press	n/a	n/a	n/a	n/a	n/a	50
68.79	0	button press	n/a	n/a	n/a	n/a	n/a	55
74.25	4.83	YY	0.67	5	1	1	1	n/a
74.92	0	button press	n/a	n/a	n/a	n/a	n/a	50
76.31	0	button press	n/a	n/a	n/a	n/a	n/a	55
76.70	0	button press	n/a	n/a	n/a	n/a	n/a	55
77.06	0	button press	n/a	n/a	n/a	n/a	n/a	55
81.96	4.83	NN	0.80	3	1	0	0	n/a
82.76	0	button press	n/a	n/a	n/a	n/a	n/a	51
84.04	0	button press	n/a	n/a	n/a	n/a	n/a	55
84.37	0	button press	n/a	n/a	n/a	n/a	n/a	55
89.22	4.83	NN	0.68	3	1	0	0	n/a
89.90	0	button press	n/a	n/a	n/a	n/a	n/a	51
91.43	0	button press	n/a	n/a	n/a	n/a	n/a	54
91.76	0	button press	n/a	n/a	n/a	n/a	n/a	54
95.24	4.83	NN	0.68	4	1	0	0	n/a
95.93	0	button press	n/a	n/a	n/a	n/a	n/a	51
97.22	0	button press	n/a	n/a	n/a	n/a	n/a	55
97.49	0	button press	n/a	n/a	n/a	n/a	n/a	54
97.81	0	button press	n/a	n/a	n/a	n/a	n/a	54
103.40	4.83	YY	0.63	6	1	1	1	n/a
104.03	0	button press	n/a	n/a	n/a	n/a	n/a	50
105.08	0	button press	n/a	n/a	n/a	n/a	n/a	55
105.40	0	button press	n/a	n/a	n/a	n/a	n/a	55
105.68	0	button press	n/a	n/a	n/a	n/a	n/a	55
105.92	0	button press	n/a	n/a	n/a	n/a	n/a	55
110.41	4.83	NN	0.78	3	1	0	0	n/a
111.19	0	button press	n/a	n/a	n/a	n/a	n/a	51
112.77	0	button press	n/a	n/a	n/a	n/a	n/a	54
117.60	4.83	YY	0.78	6	1	1	1	n/a
118.38	0	button press	n/a	n/a	n/a	n/a	n/a	50
119.63	0	button press	n/a	n/a	n/a	n/a	n/a	55
119.90	0	button press	n/a	n/a	n/a	n/a	n/a	55
120.26	0	button press	n/a	n/a	n/a	n/a	n/a	55
120.48	0	button press	n/a	n/a	n/a	n/a	n/a	55
120.72	0	button press	n/a	n/a	n/a	n/a	n/a	55
124.39	4.83	NN	0.75	3	1	0	0	n/a
125.14	0	button press	n/a	n/a	n/a	n/a	n/a	51
126.92	0	button press	n/a	n/a	n/a	n/a	n/a	55
130.90	4.83	NN	0.73	4	1	0	0	n/a
131.63	0	button press	n/a	n/a	n/a	n/a	n/a	51
133.23	0	button press	n/a	n/a	n/a	n/a	n/a	54
133.52	0	button press	n/a	n/a	n/a	n/a	n/a	54
136.64	4.83	YY	0.85	5	1	1	1	n/a
137.49	0	button press	n/a	n/a	n/a	n/a	n/a	50
139.06	0	button press	n/a	n/a	n/a	n/a	n/a	55
139.39	0	button press	n/a	n/a	n/a	n/a	n/a	55
139.84	0	button press	n/a	n/a	n/a	n/a	n/a	55
145.15	4.83	YN	0.75	3	1	3	0	n/a
145.90	0	button press	n/a	n/a	n/a	n/a	n/a	51
147.27	0	button press	n/a	n/a	n/a	n/a	n/a	54
147.63	0	button press	n/a	n/a	n/a	n/a	n/a	54
152.13	4.83	YY	0.70	4	1	1	1	n/a
152.83	0	button press	n/a	n/a	n/a	n/a	n/a	50
154.31	0	button press	n/a	n/a	n/a	n/a	n/a	54
154.67	0	button press	n/a	n/a	n/a	n/a	n/a	54
159.30	4.83	NN	0.67	3	1	0	0	n/a
159.97	0	button press	n/a	n/a	n/a	n/a	n/a	51
161.58	0	button press	n/a	n/a	n/a	n/a	n/a	54
166.71	4.83	NN	0.62	3	1	0	0	n/a
167.33	0	button press	n/a	n/a	n/a	n/a	n/a	51
169.14	0	button press	n/a	n/a	n/a	n/a	n/a	55
175.60	4.83	YY	0.68	4	1	1	1	n/a
176.28	0	button press	n/a	n/a	n/a	n/a	n/a	50
177.90	0	button press	n/a	n/a	n/a	n/a	n/a	54
178.33	0	button press	n/a	n/a	n/a	n/a	n/a	54
182.96	4.83	NN	0.60	3	1	0	0	n/a
183.56	0	button press	n/a	n/a	n/a	n/a	n/a	51
185.14	0	button press	n/a	n/a	n/a	n/a	n/a	55
185.49	0	button press	n/a	n/a	n/a	n/a	n/a	55
189.35	4.83	YN	0.70	3	1	3	0	n/a
190.05	0	button press	n/a	n/a	n/a	n/a	n/a	51
191.57	0	button press	n/a	n/a	n/a	n/a	n/a	54
192.30	0	button press	n/a	n/a	n/a	n/a	n/a	54
196.29	4.83	NN	0.72	3	1	0	0	n/a
197.01	0	button press	n/a	n/a	n/a	n/a	n/a	51
198.54	0	button press	n/a	n/a	n/a	n/a	n/a	54
205.02	4.83	YY	0.70	5	1	1	1	n/a
205.72	0	button press	n/a	n/a	n/a	n/a	n/a	50
207.01	0	button press	n/a	n/a	n/a	n/a	n/a	55
207.41	0	button press	n/a	n/a	n/a	n/a	n/a	55
207.85	0	button press	n/a	n/a	n/a	n/a	n/a	55
211.36	4.83	YN	0.77	3	1	3	0	n/a
212.13	0	button press	n/a	n/a	n/a	n/a	n/a	51
213.46	0	button press	n/a	n/a	n/a	n/a	n/a	54
213.79	0	button press	n/a	n/a	n/a	n/a	n/a	54
218.38	4.83	YN	0.67	3	1	3	0	n/a
219.05	0	button press	n/a	n/a	n/a	n/a	n/a	51
226.89	4.83	NN	0.70	3	1	0	0	n/a
227.59	0	button press	n/a	n/a	n/a	n/a	n/a	51
229.11	0	button press	n/a	n/a	n/a	n/a	n/a	54
233.25	4.83	YN	0.67	3	1	3	0	n/a
233.92	0	button press	n/a	n/a	n/a	n/a	n/a	51
235.31	0	button press	n/a	n/a	n/a	n/a	n/a	54
235.68	0	button press	n/a	n/a	n/a	n/a	n/a	54
240.31	4.83	YY	0.85	4	1	3	1	n/a
241.16	0	button press	n/a	n/a	n/a	n/a	n/a	50
242.76	0	button press	n/a	n/a	n/a	n/a	n/a	55
249.05	4.83	NN	0.65	3	1	0	0	n/a
249.70	0	button press	n/a	n/a	n/a	n/a	n/a	51
251.30	0	button press	n/a	n/a	n/a	n/a	n/a	54
251.71	0	button press	n/a	n/a	n/a	n/a	n/a	54
257.59	4.83	YN	0.66	3	1	3	0	n/a
258.26	0	button press	n/a	n/a	n/a	n/a	n/a	51
259.79	0	button press	n/a	n/a	n/a	n/a	n/a	54
260.32	0	button press	n/a	n/a	n/a	n/a	n/a	54
264.81	4.83	NN	0.75	3	1	0	0	n/a
265.56	0	button press	n/a	n/a	n/a	n/a	n/a	51
266.81	0	button press	n/a	n/a	n/a	n/a	n/a	54
267.18	0	button press	n/a	n/a	n/a	n/a	n/a	54
267.53	0	button press	n/a	n/a	n/a	n/a	n/a	54
273.27	4.83	YN	0.72	4	1	1	0	n/a
273.99	0	button press	n/a	n/a	n/a	n/a	n/a	51
276.18	0	button press	n/a	n/a	n/a	n/a	n/a	55
279.23	4.83	NN	0.72	4	1	0	0	n/a
279.95	0	button press	n/a	n/a	n/a	n/a	n/a	51
281.25	0	button press	n/a	n/a	n/a	n/a	n/a	54
281.58	0	button press	n/a	n/a	n/a	n/a	n/a	54
285.41	4.83	NN	0.80	3	1	0	0	n/a
286.21	0	button press	n/a	n/a	n/a	n/a	n/a	51
287.30	0	button press	n/a	n/a	n/a	n/a	n/a	54
287.82	0	button press	n/a	n/a	n/a	n/a	n/a	54
292.48	4.83	YN	0.77	3	1	1	0	n/a
293.25	0	button press	n/a	n/a	n/a	n/a	n/a	51
294.53	0	button press	n/a	n/a	n/a	n/a	n/a	54
294.85	0	button press	n/a	n/a	n/a	n/a	n/a	54
295.18	0	button press	n/a	n/a	n/a	n/a	n/a	54
300.41	4.83	NN	0.80	3	1	0	0	n/a
301.21	0	button press	n/a	n/a	n/a	n/a	n/a	51
302.30	0	button press	n/a	n/a	n/a	n/a	n/a	54
302.80	0	button press	n/a	n/a	n/a	n/a	n/a	55
303.09	0	button press	n/a	n/a	n/a	n/a	n/a	55
308.58	4.83	YN	0.73	3	1	3	0	n/a
309.31	0	button press	n/a	n/a	n/a	n/a	n/a	51
316.44	4.83	YN	0.73	3	1	3	0	n/a
317.17	0	button press	n/a	n/a	n/a	n/a	n/a	51
318.69	0	button press	n/a	n/a	n/a	n/a	n/a	55
319.07	0	button press	n/a	n/a	n/a	n/a	n/a	55
332.19	4.83	CC	0.90	3	0	1	1	n/a
333.09	0	button press	n/a	n/a	n/a	n/a	n/a	51
334.42	0	button press	n/a	n/a	n/a	n/a	n/a	54
334.97	0	button press	n/a	n/a	n/a	n/a	n/a	54
340.30	4.83	CC	0.75	3	0	1	1	n/a
341.04	0	button press	n/a	n/a	n/a	n/a	n/a	51
342.26	0	button press	n/a	n/a	n/a	n/a	n/a	54
342.62	0	button press	n/a	n/a	n/a	n/a	n/a	54
343.16	0	button press	n/a	n/a	n/a	n/a	n/a	54
348.47	4.83	AC	0.78	3	0	3	1	n/a
349.25	0	button press	n/a	n/a	n/a	n/a	n/a	51
350.62	0	button press	n/a	n/a	n/a	n/a	n/a	54
357.17	4.83	CC	0.75	4	0	1	1	n/a
357.93	0	button press	n/a	n/a	n/a	n/a	n/a	51
359.32	0	button press	n/a	n/a	n/a	n/a	n/a	55
363.65	4.83	AA	1.17	2	0	3	3	n/a
364.82	0	button press	n/a	n/a	n/a	n/a	n/a	50
365.73	0	button press	n/a	n/a	n/a	n/a	n/a	54
366.05	0	button press	n/a	n/a	n/a	n/a	n/a	54
366.36	0	button press	n/a	n/a	n/a	n/a	n/a	54
372.18	4.83	AC	0.93	3	0	3	1	n/a
373.11	0	button press	n/a	n/a	n/a	n/a	n/a	51
374.36	0	button press	n/a	n/a	n/a	n/a	n/a	54
374.95	0	button press	n/a	n/a	n/a	n/a	n/a	54
379.18	4.83	AC	0.75	3	0	3	1	n/a
379.93	0	button press	n/a	n/a	n/a	n/a	n/a	51
387.11	4.83	CC	0.82	5	0	1	1	n/a
387.92	0	button press	n/a	n/a	n/a	n/a	n/a	51
389.04	0	button press	n/a	n/a	n/a	n/a	n/a	55
389.37	0	button press	n/a	n/a	n/a	n/a	n/a	55
389.60	0	button press	n/a	n/a	n/a	n/a	n/a	55
390.51	0	button press	n/a	n/a	n/a	n/a	n/a	55
394.15	4.83	CC	0.73	4	0	1	1	n/a
394.88	0	button press	n/a	n/a	n/a	n/a	n/a	51
396.43	0	button press	n/a	n/a	n/a	n/a	n/a	55
396.78	0	button press	n/a	n/a	n/a	n/a	n/a	55
399.84	4.83	AC	0.80	3	0	3	1	n/a
400.64	0	button press	n/a	n/a	n/a	n/a	n/a	51
401.97	0	button press	n/a	n/a	n/a	n/a	n/a	54
402.66	0	button press	n/a	n/a	n/a	n/a	n/a	54
407.57	4.83	CC	0.70	3	0	1	1	n/a
408.27	0	button press	n/a	n/a	n/a	n/a	n/a	51
409.66	0	button press	n/a	n/a	n/a	n/a	n/a	54
409.98	0	button press	n/a	n/a	n/a	n/a	n/a	54
410.30	0	button press	n/a	n/a	n/a	n/a	n/a	54
413.83	4.83	CC	0.67	3	0	1	1	n/a
414.49	0	button press	n/a	n/a	n/a	n/a	n/a	51
416.09	0	button press	n/a	n/a	n/a	n/a	n/a	54
419.47	4.83	AC	0.73	3	0	3	1	n/a
420.20	0	button press	n/a	n/a	n/a	n/a	n/a	51
421.72	0	button press	n/a	n/a	n/a	n/a	n/a	54
422.13	0	button press	n/a	n/a	n/a	n/a	n/a	54
427.94	4.83	AC	0.72	4	0	3	1	n/a
428.66	0	button press	n/a	n/a	n/a	n/a	n/a	51
430.38	0	button press	n/a	n/a	n/a	n/a	n/a	55
434.35	4.83	CC	0.83	3	0	1	1	n/a
435.19	0	button press	n/a	n/a	n/a	n/a	n/a	51
442.64	4.83	AC	0.72	3	0	3	1	n/a
443.36	0	button press	n/a	n/a	n/a	n/a	n/a	51
448.59	4.83	CA	0.98	3	0	1	3	n/a
449.57	0	button press	n/a	n/a	n/a	n/a	n/a	50
450.78	0	button press	n/a	n/a	n/a	n/a	n/a	55
451.23	0	button press	n/a	n/a	n/a	n/a	n/a	54
454.75	4.83	AC	0.76	3	0	3	1	n/a
455.51	0	button press	n/a	n/a	n/a	n/a	n/a	51
456.84	0	button press	n/a	n/a	n/a	n/a	n/a	54
457.16	0	button press	n/a	n/a	n/a	n/a	n/a	54
457.51	0	button press	n/a	n/a	n/a	n/a	n/a	54
462.10	4.83	AA	1.05	3	0	3	3	n/a
463.15	0	button press	n/a	n/a	n/a	n/a	n/a	50
464.37	0	button press	n/a	n/a	n/a	n/a	n/a	54
468.90	4.83	AC	0.77	3	0	3	1	n/a
469.66	0	button press	n/a	n/a	n/a	n/a	n/a	51
471.01	0	button press	n/a	n/a	n/a	n/a	n/a	55
471.44	0	button press	n/a	n/a	n/a	n/a	n/a	55
475.37	4.83	AC	0.67	3	0	3	1	n/a
476.04	0	button press	n/a	n/a	n/a	n/a	n/a	51
477.72	0	button press	n/a	n/a	n/a	n/a	n/a	55
478.14	0	button press	n/a	n/a	n/a	n/a	n/a	55
483.36	4.83	CC	0.73	3	0	1	1	n/a
484.10	0	button press	n/a	n/a	n/a	n/a	n/a	51
485.79	0	button press	n/a	n/a	n/a	n/a	n/a	55
491.07	4.83	CC	0.74	4	0	1	1	n/a
491.81	0	button press	n/a	n/a	n/a	n/a	n/a	51
493.22	0	button press	n/a	n/a	n/a	n/a	n/a	54
499.86	4.83	AA	1.51	3	0	3	3	n/a
501.38	0	button press	n/a	n/a	n/a	n/a	n/a	50
502.37	0	button press	n/a	n/a	n/a	n/a	n/a	55
502.69	0	button press	n/a	n/a	n/a	n/a	n/a	55
505.67	4.83	CC	0.73	3	0	1	1	n/a
506.40	0	button press	n/a	n/a	n/a	n/a	n/a	51
508.35	0	button press	n/a	n/a	n/a	n/a	n/a	55
511.77	4.83	CA	0.76	3	0	1	3	n/a
512.53	0	button press	n/a	n/a	n/a	n/a	n/a	50
513.88	0	button press	n/a	n/a	n/a	n/a	n/a	54
514.23	0	button press	n/a	n/a	n/a	n/a	n/a	54
514.93	0	button press	n/a	n/a	n/a	n/a	n/a	54
518.57	4.83	CC	0.77	3	0	1	1	n/a
519.34	0	button press	n/a	n/a	n/a	n/a	n/a	51
520.80	0	button press	n/a	n/a	n/a	n/a	n/a	55
521.24	0	button press	n/a	n/a	n/a	n/a	n/a	55
525.76	4.83	CC	0.72	3	0	1	1	n/a
526.48	0	button press	n/a	n/a	n/a	n/a	n/a	51
527.98	0	button press	n/a	n/a	n/a	n/a	n/a	55
528.40	0	button press	n/a	n/a	n/a	n/a	n/a	55
532.44	4.83	AA	1.00	3	0	3	3	n/a
533.44	0	button press	n/a	n/a	n/a	n/a	n/a	50
534.57	0	button press	n/a	n/a	n/a	n/a	n/a	54
535.29	0	button press	n/a	n/a	n/a	n/a	n/a	54
539.37	4.83	CC	0.85	3	0	1	1	n/a
540.21	0	button press	n/a	n/a	n/a	n/a	n/a	51
541.31	0	button press	n/a	n/a	n/a	n/a	n/a	55
541.78	0	button press	n/a	n/a	n/a	n/a	n/a	54
542.08	0	button press	n/a	n/a	n/a	n/a	n/a	54
545.13	4.83	CC	1.50	3	0	1	1	n/a
546.04	0	button press	n/a	n/a	n/a	n/a	n/a	50
546.62	0	button press	n/a	n/a	n/a	n/a	n/a	51
553.33	4.83	AA	0.93	4	0	3	3	n/a
554.27	0	button press	n/a	n/a	n/a	n/a	n/a	50
555.76	0	button press	n/a	n/a	n/a	n/a	n/a	55
561.32	4.83	AA	0.90	4	0	3	3	n/a
562.22	0	button press	n/a	n/a	n/a	n/a	n/a	50
563.37	0	button press	n/a	n/a	n/a	n/a	n/a	54
563.69	0	button press	n/a	n/a	n/a	n/a	n/a	54
568.45	4.83	AC	1.05	3	0	3	1	n/a
569.50	0	button press	n/a	n/a	n/a	n/a	n/a	51
570.50	0	button press	n/a	n/a	n/a	n/a	n/a	54
576.36	4.83	CC	1.03	3	0	1	1	n/a
577.39	0	button press	n/a	n/a	n/a	n/a	n/a	51
578.75	0	button press	n/a	n/a	n/a	n/a	n/a	55
582.70	4.83	CC	1.50	2	0	1	1	n/a
584.20	0	button press	n/a	n/a	n/a	n/a	n/a	51
585.01	0	button press	n/a	n/a	n/a	n/a	n/a	54
585.90	0	button press	n/a	n/a	n/a	n/a	n/a	54
586.16	0	button press	n/a	n/a	n/a	n/a	n/a	54
586.38	0	button press	n/a	n/a	n/a	n/a	n/a	54
589.08	4.83	AA	0.73	4	0	3	3	n/a
589.81	0	button press	n/a	n/a	n/a	n/a	n/a	50
590.94	0	button press	n/a	n/a	n/a	n/a	n/a	55
591.37	0	button press	n/a	n/a	n/a	n/a	n/a	54
591.69	0	button press	n/a	n/a	n/a	n/a	n/a	54
595.93	4.83	AA	0.80	3	0	3	3	n/a
596.73	0	button press	n/a	n/a	n/a	n/a	n/a	50
598.10	0	button press	n/a	n/a	n/a	n/a	n/a	55
598.46	0	button press	n/a	n/a	n/a	n/a	n/a	55
604.62	4.83	CA	0.78	3	0	1	3	n/a
605.41	0	button press	n/a	n/a	n/a	n/a	n/a	50
611.38	4.83	AC	0.73	3	0	3	1	n/a
612.11	0	button press	n/a	n/a	n/a	n/a	n/a	51
613.51	0	button press	n/a	n/a	n/a	n/a	n/a	55
613.93	0	button press	n/a	n/a	n/a	n/a	n/a	55
