onset	duration	trial_type	response_time	confidence	detection	stimulus	response	key_id
26.83	4.83	CC	0.71	6	0	1	1	n/a
27.54	0	button press	n/a	n/a	n/a	n/a	n/a	51
28.72	0	button press	n/a	n/a	n/a	n/a	n/a	54
33.63	4.83	CC	0.63	4	0	1	1	n/a
34.26	0	button press	n/a	n/a	n/a	n/a	n/a	51
35.56	0	button press	n/a	n/a	n/a	n/a	n/a	55
35.88	0	button press	n/a	n/a	n/a	n/a	n/a	55
39.72	4.83	CC	0.67	4	0	1	1	n/a
40.39	0	button press	n/a	n/a	n/a	n/a	n/a	51
41.94	0	button press	n/a	n/a	n/a	n/a	n/a	55
42.45	0	button press	n/a	n/a	n/a	n/a	n/a	55
43.00	0	button press	n/a	n/a	n/a	n/a	n/a	54
45.57	4.83	CC	0.72	4	0	1	1	n/a
46.28	0	button press	n/a	n/a	n/a	n/a	n/a	51
52.38	4.83	AC	0.97	4	0	3	1	n/a
53.34	0	button press	n/a	n/a	n/a	n/a	n/a	51
54.56	0	button press	n/a	n/a	n/a	n/a	n/a	54
58.55	4.83	AA	0.83	1	0	3	3	n/a
59.38	0	button press	n/a	n/a	n/a	n/a	n/a	50
60.48	0	button press	n/a	n/a	n/a	n/a	n/a	55
64.79	4.83	AA	0.78	2	0	3	3	n/a
65.58	0	button press	n/a	n/a	n/a	n/a	n/a	50
67.34	0	button press	n/a	n/a	n/a	n/a	n/a	55
67.71	0	button press	n/a	n/a	n/a	n/a	n/a	55
70.44	4.83	CC	0.90	2	0	1	1	n/a
71.34	0	button press	n/a	n/a	n/a	n/a	n/a	51
72.95	0	button press	n/a	n/a	n/a	n/a	n/a	55
73.19	0	button press	n/a	n/a	n/a	n/a	n/a	55
73.42	0	button press	n/a	n/a	n/a	n/a	n/a	55
73.65	0	button press	n/a	n/a	n/a	n/a	n/a	55
78.68	4.83	AA	0.78	2	0	3	3	n/a
79.46	0	button press	n/a	n/a	n/a	n/a	n/a	50
80.79	0	button press	n/a	n/a	n/a	n/a	n/a	54
81.19	0	button press	n/a	n/a	n/a	n/a	n/a	55
81.46	0	button press	n/a	n/a	n/a	n/a	n/a	55
82.64	0	button press	n/a	n/a	n/a	n/a	n/a	55
87.75	4.83	CC	0.82	4	0	1	1	n/a
88.57	0	button press	n/a	n/a	n/a	n/a	n/a	51
90.20	0	button press	n/a	n/a	n/a	n/a	n/a	54
90.43	0	button press	n/a	n/a	n/a	n/a	n/a	54
90.67	0	button press	n/a	n/a	n/a	n/a	n/a	54
96.03	4.83	CA	0.83	1	0	1	3	n/a
96.86	0	button press	n/a	n/a	n/a	n/a	n/a	50
98.41	0	button press	n/a	n/a	n/a	n/a	n/a	55
98.67	0	button press	n/a	n/a	n/a	n/a	n/a	55
98.94	0	button press	n/a	n/a	n/a	n/a	n/a	55
105.28	4.83	CC	0.93	6	0	1	1	n/a
106.21	0	button press	n/a	n/a	n/a	n/a	n/a	51
114.52	4.83	AA	0.73	6	0	3	3	n/a
115.25	0	button press	n/a	n/a	n/a	n/a	n/a	50
116.55	0	button press	n/a	n/a	n/a	n/a	n/a	54
120.60	4.83	AA	1.51	4	0	3	3	n/a
122.11	0	button press	n/a	n/a	n/a	n/a	n/a	50
123.39	0	button press	n/a	n/a	n/a	n/a	n/a	54
128.59	4.83	AA	0.68	5	0	3	3	n/a
129.27	0	button press	n/a	n/a	n/a	n/a	n/a	50
130.79	0	button press	n/a	n/a	n/a	n/a	n/a	54
132.25	0	button press	n/a	n/a	n/a	n/a	n/a	55
135.35	4.83	CA	0.87	5	0	1	3	n/a
136.21	0	button press	n/a	n/a	n/a	n/a	n/a	50
137.28	0	button press	n/a	n/a	n/a	n/a	n/a	54
137.51	0	button press	n/a	n/a	n/a	n/a	n/a	54
137.76	0	button press	n/a	n/a	n/a	n/a	n/a	54
137.98	0	button press	n/a	n/a	n/a	n/a	n/a	54
141.46	4.83	AA	0.77	5	0	3	3	n/a
142.22	0	button press	n/a	n/a	n/a	n/a	n/a	50
143.30	0	button press	n/a	n/a	n/a	n/a	n/a	54
143.59	0	button press	n/a	n/a	n/a	n/a	n/a	54
144.07	0	button press	n/a	n/a	n/a	n/a	n/a	54
148.40	4.83	CC	0.70	4	0	1	1	n/a
149.10	0	button press	n/a	n/a	n/a	n/a	n/a	51
150.23	0	button press	n/a	n/a	n/a	n/a	n/a	54
150.71	0	button press	n/a	n/a	n/a	n/a	n/a	55
150.95	0	button press	n/a	n/a	n/a	n/a	n/a	55
155.32	4.83	CC	0.82	3	0	1	1	n/a
156.14	0	button press	n/a	n/a	n/a	n/a	n/a	51
157.90	0	button press	n/a	n/a	n/a	n/a	n/a	55
158.24	0	button press	n/a	n/a	n/a	n/a	n/a	55
162.13	4.83	CC	0.75	3	0	1	1	n/a
162.88	0	button press	n/a	n/a	n/a	n/a	n/a	51
164.30	0	button press	n/a	n/a	n/a	n/a	n/a	55
164.58	0	button press	n/a	n/a	n/a	n/a	n/a	55
164.78	0	button press	n/a	n/a	n/a	n/a	n/a	55
167.98	4.83	AC	0.87	2	0	3	1	n/a
168.84	0	button press	n/a	n/a	n/a	n/a	n/a	51
169.81	0	button press	n/a	n/a	n/a	n/a	n/a	55
174.95	4.83	CC	0.72	2	0	1	1	n/a
175.67	0	button press	n/a	n/a	n/a	n/a	n/a	51
176.80	0	button press	n/a	n/a	n/a	n/a	n/a	55
177.60	0	button press	n/a	n/a	n/a	n/a	n/a	54
183.03	4.83	CC	0.73	3	0	1	1	n/a
183.76	0	button press	n/a	n/a	n/a	n/a	n/a	51
185.01	0	button press	n/a	n/a	n/a	n/a	n/a	54
185.24	0	button press	n/a	n/a	n/a	n/a	n/a	54
191.32	4.83	AA	0.78	2	0	3	3	n/a
192.10	0	button press	n/a	n/a	n/a	n/a	n/a	50
193.20	0	button press	n/a	n/a	n/a	n/a	n/a	55
193.66	0	button press	n/a	n/a	n/a	n/a	n/a	55
194.06	0	button press	n/a	n/a	n/a	n/a	n/a	55
194.46	0	button press	n/a	n/a	n/a	n/a	n/a	54
198.58	4.83	CC	0.73	3	0	1	1	n/a
199.31	0	button press	n/a	n/a	n/a	n/a	n/a	51
200.52	0	button press	n/a	n/a	n/a	n/a	n/a	55
200.77	0	button press	n/a	n/a	n/a	n/a	n/a	55
201.17	0	button press	n/a	n/a	n/a	n/a	n/a	55
201.65	0	button press	n/a	n/a	n/a	n/a	n/a	55
202.10	0	button press	n/a	n/a	n/a	n/a	n/a	54
204.95	4.83	CC	0.77	3	0	1	1	n/a
205.72	0	button press	n/a	n/a	n/a	n/a	n/a	51
206.77	0	button press	n/a	n/a	n/a	n/a	n/a	55
207.03	0	button press	n/a	n/a	n/a	n/a	n/a	55
207.25	0	button press	n/a	n/a	n/a	n/a	n/a	55
207.46	0	button press	n/a	n/a	n/a	n/a	n/a	55
208.30	0	button press	n/a	n/a	n/a	n/a	n/a	54
213.87	4.83	AA	1.03	4	0	3	3	n/a
214.91	0	button press	n/a	n/a	n/a	n/a	n/a	50
215.99	0	button press	n/a	n/a	n/a	n/a	n/a	54
216.27	0	button press	n/a	n/a	n/a	n/a	n/a	54
219.53	4.83	AC	0.87	1	0	3	1	n/a
220.40	0	button press	n/a	n/a	n/a	n/a	n/a	51
221.37	0	button press	n/a	n/a	n/a	n/a	n/a	55
228.34	4.83	AA	0.78	2	0	3	3	n/a
229.12	0	button press	n/a	n/a	n/a	n/a	n/a	50
230.27	0	button press	n/a	n/a	n/a	n/a	n/a	54
235.48	4.83	CC	0.68	6	0	1	1	n/a
236.17	0	button press	n/a	n/a	n/a	n/a	n/a	51
237.11	0	button press	n/a	n/a	n/a	n/a	n/a	54
237.43	0	button press	n/a	n/a	n/a	n/a	n/a	54
237.66	0	button press	n/a	n/a	n/a	n/a	n/a	54
237.88	0	button press	n/a	n/a	n/a	n/a	n/a	54
243.22	4.83	CC	0.85	4	0	1	1	n/a
244.07	0	button press	n/a	n/a	n/a	n/a	n/a	51
245.19	0	button press	n/a	n/a	n/a	n/a	n/a	50
245.70	0	button press	n/a	n/a	n/a	n/a	n/a	54
246.25	0	button press	n/a	n/a	n/a	n/a	n/a	55
246.80	0	button press	n/a	n/a	n/a	n/a	n/a	54
251.21	4.83	AA	0.83	1	0	3	3	n/a
252.05	0	button press	n/a	n/a	n/a	n/a	n/a	50
253.06	0	button press	n/a	n/a	n/a	n/a	n/a	55
253.48	0	button press	n/a	n/a	n/a	n/a	n/a	55
253.73	0	button press	n/a	n/a	n/a	n/a	n/a	55
260.34	4.83	CC	0.72	2	0	1	1	n/a
261.05	0	button press	n/a	n/a	n/a	n/a	n/a	51
262.19	0	button press	n/a	n/a	n/a	n/a	n/a	55
262.72	0	button press	n/a	n/a	n/a	n/a	n/a	54
266.73	4.83	AA	0.83	2	0	3	3	n/a
267.56	0	button press	n/a	n/a	n/a	n/a	n/a	50
269.06	0	button press	n/a	n/a	n/a	n/a	n/a	55
269.31	0	button press	n/a	n/a	n/a	n/a	n/a	55
269.51	0	button press	n/a	n/a	n/a	n/a	n/a	55
270.23	0	button press	n/a	n/a	n/a	n/a	n/a	55
273.26	4.83	CC	0.85	2	0	1	1	n/a
274.11	0	button press	n/a	n/a	n/a	n/a	n/a	51
275.62	0	button press	n/a	n/a	n/a	n/a	n/a	55
275.89	0	button press	n/a	n/a	n/a	n/a	n/a	55
282.15	4.83	AA	0.97	4	0	3	3	n/a
283.11	0	button press	n/a	n/a	n/a	n/a	n/a	50
284.16	0	button press	n/a	n/a	n/a	n/a	n/a	54
284.41	0	button press	n/a	n/a	n/a	n/a	n/a	54
284.76	0	button press	n/a	n/a	n/a	n/a	n/a	54
289.99	4.83	AA	0.68	4	0	3	3	n/a
290.67	0	button press	n/a	n/a	n/a	n/a	n/a	50
291.92	0	button press	n/a	n/a	n/a	n/a	n/a	54
292.20	0	button press	n/a	n/a	n/a	n/a	n/a	54
297.78	4.83	AA	0.80	3	0	3	3	n/a
298.58	0	button press	n/a	n/a	n/a	n/a	n/a	50
300.08	0	button press	n/a	n/a	n/a	n/a	n/a	55
300.34	0	button press	n/a	n/a	n/a	n/a	n/a	55
304.97	4.83	AA	0.73	4	0	3	3	n/a
305.70	0	button press	n/a	n/a	n/a	n/a	n/a	50
306.80	0	button press	n/a	n/a	n/a	n/a	n/a	54
307.08	0	button press	n/a	n/a	n/a	n/a	n/a	54
313.13	4.83	AA	0.70	2	0	3	3	n/a
313.83	0	button press	n/a	n/a	n/a	n/a	n/a	50
315.34	0	button press	n/a	n/a	n/a	n/a	n/a	54
315.82	0	button press	n/a	n/a	n/a	n/a	n/a	55
329.04	4.83	YY	0.82	3	1	3	1	n/a
329.86	0	button press	n/a	n/a	n/a	n/a	n/a	50
331.51	0	button press	n/a	n/a	n/a	n/a	n/a	55
331.82	0	button press	n/a	n/a	n/a	n/a	n/a	55
336.97	4.83	NN	0.58	6	1	0	0	n/a
337.55	0	button press	n/a	n/a	n/a	n/a	n/a	51
343.86	4.83	YY	0.80	3	1	3	1	n/a
344.66	0	button press	n/a	n/a	n/a	n/a	n/a	50
345.89	0	button press	n/a	n/a	n/a	n/a	n/a	55
351.55	4.83	YN	0.97	1	1	3	0	n/a
352.52	0	button press	n/a	n/a	n/a	n/a	n/a	51
353.43	0	button press	n/a	n/a	n/a	n/a	n/a	55
353.68	0	button press	n/a	n/a	n/a	n/a	n/a	55
358.33	4.83	YN	1.05	4	1	1	0	n/a
359.37	0	button press	n/a	n/a	n/a	n/a	n/a	51
366.88	4.83	YN	0.63	3	1	3	0	n/a
367.52	0	button press	n/a	n/a	n/a	n/a	n/a	51
369.05	0	button press	n/a	n/a	n/a	n/a	n/a	55
369.31	0	button press	n/a	n/a	n/a	n/a	n/a	55
373.64	4.83	YN	0.67	2	1	3	0	n/a
374.31	0	button press	n/a	n/a	n/a	n/a	n/a	51
375.59	0	button press	n/a	n/a	n/a	n/a	n/a	55
382.43	4.83	NN	0.65	4	1	0	0	n/a
383.08	0	button press	n/a	n/a	n/a	n/a	n/a	51
384.86	0	button press	n/a	n/a	n/a	n/a	n/a	55
385.31	0	button press	n/a	n/a	n/a	n/a	n/a	55
389.46	4.83	YN	0.73	4	1	3	0	n/a
390.19	0	button press	n/a	n/a	n/a	n/a	n/a	51
391.46	0	button press	n/a	n/a	n/a	n/a	n/a	55
395.82	4.83	NN	0.65	5	1	0	0	n/a
396.47	0	button press	n/a	n/a	n/a	n/a	n/a	51
397.90	0	button press	n/a	n/a	n/a	n/a	n/a	54
398.48	0	button press	n/a	n/a	n/a	n/a	n/a	54
402.78	4.83	YN	1.18	2	1	3	0	n/a
403.96	0	button press	n/a	n/a	n/a	n/a	n/a	51
404.82	0	button press	n/a	n/a	n/a	n/a	n/a	55
405.21	0	button press	n/a	n/a	n/a	n/a	n/a	54
408.83	4.83	NN	0.68	6	1	0	0	n/a
409.52	0	button press	n/a	n/a	n/a	n/a	n/a	51
410.55	0	button press	n/a	n/a	n/a	n/a	n/a	54
410.82	0	button press	n/a	n/a	n/a	n/a	n/a	54
416.54	4.83	NN	0.82	3	1	0	0	n/a
417.36	0	button press	n/a	n/a	n/a	n/a	n/a	51
418.54	0	button press	n/a	n/a	n/a	n/a	n/a	54
423.93	4.83	YY	0.92	4	1	1	1	n/a
424.85	0	button press	n/a	n/a	n/a	n/a	n/a	50
426.11	0	button press	n/a	n/a	n/a	n/a	n/a	54
430.93	4.83	NN	0.83	5	1	0	0	n/a
431.76	0	button press	n/a	n/a	n/a	n/a	n/a	51
433.91	0	button press	n/a	n/a	n/a	n/a	n/a	55
436.94	4.83	NN	0.68	5	1	0	0	n/a
437.62	0	button press	n/a	n/a	n/a	n/a	n/a	51
439.13	0	button press	n/a	n/a	n/a	n/a	n/a	54
439.37	0	button press	n/a	n/a	n/a	n/a	n/a	54
439.92	0	button press	n/a	n/a	n/a	n/a	n/a	54
444.66	4.83	YN	0.70	3	1	1	0	n/a
445.36	0	button press	n/a	n/a	n/a	n/a	n/a	51
446.84	0	button press	n/a	n/a	n/a	n/a	n/a	55
447.12	0	button press	n/a	n/a	n/a	n/a	n/a	55
447.32	0	button press	n/a	n/a	n/a	n/a	n/a	55
451.19	4.83	NN	0.70	3	1	0	0	n/a
451.89	0	button press	n/a	n/a	n/a	n/a	n/a	51
453.72	0	button press	n/a	n/a	n/a	n/a	n/a	54
454.17	0	button press	n/a	n/a	n/a	n/a	n/a	55
454.43	0	button press	n/a	n/a	n/a	n/a	n/a	55
458.29	4.83	NN	0.70	3	1	0	0	n/a
458.99	0	button press	n/a	n/a	n/a	n/a	n/a	51
460.29	0	button press	n/a	n/a	n/a	n/a	n/a	55
460.54	0	button press	n/a	n/a	n/a	n/a	n/a	55
465.57	4.83	YN	0.77	1	1	3	0	n/a
466.34	0	button press	n/a	n/a	n/a	n/a	n/a	51
467.37	0	button press	n/a	n/a	n/a	n/a	n/a	55
471.36	4.83	NN	0.67	4	1	0	0	n/a
472.03	0	button press	n/a	n/a	n/a	n/a	n/a	51
473.29	0	button press	n/a	n/a	n/a	n/a	n/a	54
473.58	0	button press	n/a	n/a	n/a	n/a	n/a	54
473.79	0	button press	n/a	n/a	n/a	n/a	n/a	54
480.15	4.83	NN	1.18	4	1	0	0	n/a
481.33	0	button press	n/a	n/a	n/a	n/a	n/a	51
482.50	0	button press	n/a	n/a	n/a	n/a	n/a	54
487.28	4.83	NN	0.67	2	1	0	0	n/a
487.94	0	button press	n/a	n/a	n/a	n/a	n/a	51
489.29	0	button press	n/a	n/a	n/a	n/a	n/a	55
489.63	0	button press	n/a	n/a	n/a	n/a	n/a	54
494.14	4.83	YY	0.87	2	1	1	1	n/a
495.00	0	button press	n/a	n/a	n/a	n/a	n/a	50
496.33	0	button press	n/a	n/a	n/a	n/a	n/a	55
496.60	0	button press	n/a	n/a	n/a	n/a	n/a	55
497.08	0	button press	n/a	n/a	n/a	n/a	n/a	55
497.43	0	button press	n/a	n/a	n/a	n/a	n/a	55
499.80	4.83	NN	0.70	4	1	0	0	n/a
500.50	0	button press	n/a	n/a	n/a	n/a	n/a	51
501.66	0	button press	n/a	n/a	n/a	n/a	n/a	54
502.03	0	button press	n/a	n/a	n/a	n/a	n/a	55
502.26	0	button press	n/a	n/a	n/a	n/a	n/a	55
502.43	0	button press	n/a	n/a	n/a	n/a	n/a	55
503.06	0	button press	n/a	n/a	n/a	n/a	n/a	54
506.44	4.83	NN	0.72	2	1	0	0	n/a
507.16	0	button press	n/a	n/a	n/a	n/a	n/a	51
508.50	0	button press	n/a	n/a	n/a	n/a	n/a	55
508.77	0	button press	n/a	n/a	n/a	n/a	n/a	55
515.63	4.83	YN	0.75	2	1	1	0	n/a
516.38	0	button press	n/a	n/a	n/a	n/a	n/a	51
517.98	0	button press	n/a	n/a	n/a	n/a	n/a	54
518.41	0	button press	n/a	n/a	n/a	n/a	n/a	54
519.06	0	button press	n/a	n/a	n/a	n/a	n/a	55
522.34	4.83	NN	0.72	3	1	0	0	n/a
523.05	0	button press	n/a	n/a	n/a	n/a	n/a	51
524.35	0	button press	n/a	n/a	n/a	n/a	n/a	55
529.23	4.83	NN	0.68	2	1	0	0	n/a
529.91	0	button press	n/a	n/a	n/a	n/a	n/a	51
530.91	0	button press	n/a	n/a	n/a	n/a	n/a	55
531.23	0	button press	n/a	n/a	n/a	n/a	n/a	55
531.64	0	button press	n/a	n/a	n/a	n/a	n/a	54
535.07	4.83	NN	0.60	1	1	0	0	n/a
535.67	0	button press	n/a	n/a	n/a	n/a	n/a	51
536.90	0	button press	n/a	n/a	n/a	n/a	n/a	55
540.87	4.83	NN	0.70	1	1	0	0	n/a
541.57	0	button press	n/a	n/a	n/a	n/a	n/a	51
542.95	0	button press	n/a	n/a	n/a	n/a	n/a	55
543.23	0	button press	n/a	n/a	n/a	n/a	n/a	55
543.48	0	button press	n/a	n/a	n/a	n/a	n/a	55
543.73	0	button press	n/a	n/a	n/a	n/a	n/a	55
544.33	0	button press	n/a	n/a	n/a	n/a	n/a	55
550.22	4.83	YY	1.02	3	1	1	1	n/a
551.24	0	button press	n/a	n/a	n/a	n/a	n/a	50
552.19	0	button press	n/a	n/a	n/a	n/a	n/a	54
557.83	4.83	YY	0.85	1	1	1	1	n/a
558.68	0	button press	n/a	n/a	n/a	n/a	n/a	50
560.36	0	button press	n/a	n/a	n/a	n/a	n/a	55
560.59	0	button press	n/a	n/a	n/a	n/a	n/a	55
560.83	0	button press	n/a	n/a	n/a	n/a	n/a	55
561.06	0	button press	n/a	n/a	n/a	n/a	n/a	55
561.23	0	button press	n/a	n/a	n/a	n/a	n/a	55
565.52	4.83	YY	0.82	3	1	1	1	n/a
566.34	0	button press	n/a	n/a	n/a	n/a	n/a	50
567.24	0	button press	n/a	n/a	n/a	n/a	n/a	54
567.85	0	button press	n/a	n/a	n/a	n/a	n/a	55
568.10	0	button press	n/a	n/a	n/a	n/a	n/a	55
568.29	0	button press	n/a	n/a	n/a	n/a	n/a	55
572.25	4.83	YN	0.97	4	1	3	0	n/a
573.21	0	button press	n/a	n/a	n/a	n/a	n/a	51
574.60	0	button press	n/a	n/a	n/a	n/a	n/a	55
574.84	0	button press	n/a	n/a	n/a	n/a	n/a	55
580.27	4.83	NN	1.13	3	1	0	0	n/a
581.40	0	button press	n/a	n/a	n/a	n/a	n/a	51
582.67	0	button press	n/a	n/a	n/a	n/a	n/a	55
582.95	0	button press	n/a	n/a	n/a	n/a	n/a	55
583.17	0	button press	n/a	n/a	n/a	n/a	n/a	55
589.21	4.83	YY	0.78	4	1	1	1	n/a
589.99	0	button press	n/a	n/a	n/a	n/a	n/a	50
591.19	0	button press	n/a	n/a	n/a	n/a	n/a	54
591.48	0	button press	n/a	n/a	n/a	n/a	n/a	54
596.04	4.83	YN	0.65	3	1	3	0	n/a
596.69	0	button press	n/a	n/a	n/a	n/a	n/a	51
598.00	0	button press	n/a	n/a	n/a	n/a	n/a	55
598.25	0	button press	n/a	n/a	n/a	n/a	n/a	55
598.48	0	button press	n/a	n/a	n/a	n/a	n/a	55
603.35	4.83	NN	0.73	2	1	0	0	n/a
604.08	0	button press	n/a	n/a	n/a	n/a	n/a	51
605.18	0	button press	n/a	n/a	n/a	n/a	n/a	55
605.46	0	button press	n/a	n/a	n/a	n/a	n/a	55
610.09	4.83	YY	0.80	2	1	1	1	n/a
610.89	0	button press	n/a	n/a	n/a	n/a	n/a	50
612.09	0	button press	n/a	n/a	n/a	n/a	n/a	55
613.03	0	button press	n/a	n/a	n/a	n/a	n/a	54
