onset	duration	trial_type	response_time	confidence	detection	stimulus	response	key_id
26.83	4.83	AC	0.81	3	0	3	1	n/a
27.64	0	button press	n/a	n/a	n/a	n/a	n/a	51
28.87	0	button press	n/a	n/a	n/a	n/a	n/a	54
29.44	0	button press	n/a	n/a	n/a	n/a	n/a	54
32.45	4.83	CC	0.65	6	0	1	1	n/a
33.10	0	button press	n/a	n/a	n/a	n/a	n/a	51
34.35	0	button press	n/a	n/a	n/a	n/a	n/a	55
39.47	4.83	CC	0.60	5	0	1	1	n/a
40.07	0	button press	n/a	n/a	n/a	n/a	n/a	51
42.19	0	button press	n/a	n/a	n/a	n/a	n/a	54
47.13	4.83	CC	0.57	6	0	1	1	n/a
47.70	0	button press	n/a	n/a	n/a	n/a	n/a	51
49.05	0	button press	n/a	n/a	n/a	n/a	n/a	55
55.92	4.83	AA	0.63	6	0	3	3	n/a
56.55	0	button press	n/a	n/a	n/a	n/a	n/a	50
57.90	0	button press	n/a	n/a	n/a	n/a	n/a	55
58.15	0	button press	n/a	n/a	n/a	n/a	n/a	55
58.57	0	button press	n/a	n/a	n/a	n/a	n/a	55
63.21	4.83	CC	0.78	6	0	1	1	n/a
64.00	0	button press	n/a	n/a	n/a	n/a	n/a	51
65.18	0	button press	n/a	n/a	n/a	n/a	n/a	55
65.39	0	button press	n/a	n/a	n/a	n/a	n/a	55
65.64	0	button press	n/a	n/a	n/a	n/a	n/a	55
66.04	0	button press	n/a	n/a	n/a	n/a	n/a	55
69.64	4.83	AA	0.67	6	0	3	3	n/a
70.31	0	button press	n/a	n/a	n/a	n/a	n/a	50
71.52	0	button press	n/a	n/a	n/a	n/a	n/a	55
71.74	0	button press	n/a	n/a	n/a	n/a	n/a	55
71.99	0	button press	n/a	n/a	n/a	n/a	n/a	55
78.11	4.83	CC	0.97	2	0	1	1	n/a
79.08	0	button press	n/a	n/a	n/a	n/a	n/a	51
79.93	0	button press	n/a	n/a	n/a	n/a	n/a	54
80.24	0	button press	n/a	n/a	n/a	n/a	n/a	54
86.29	4.83	AC	0.70	6	0	3	1	n/a
86.99	0	button press	n/a	n/a	n/a	n/a	n/a	51
88.22	0	button press	n/a	n/a	n/a	n/a	n/a	55
89.15	0	button press	n/a	n/a	n/a	n/a	n/a	54
89.83	0	button press	n/a	n/a	n/a	n/a	n/a	55
94.34	4.83	CC	0.67	4	0	1	1	n/a
95.01	0	button press	n/a	n/a	n/a	n/a	n/a	51
96.29	0	button press	n/a	n/a	n/a	n/a	n/a	55
97.01	0	button press	n/a	n/a	n/a	n/a	n/a	54
102.12	4.83	AA	0.77	3	0	3	3	n/a
102.88	0	button press	n/a	n/a	n/a	n/a	n/a	50
104.27	0	button press	n/a	n/a	n/a	n/a	n/a	55
105.13	0	button press	n/a	n/a	n/a	n/a	n/a	55
107.99	4.83	AA	0.67	5	0	3	3	n/a
108.66	0	button press	n/a	n/a	n/a	n/a	n/a	50
115.64	4.83	CC	0.68	5	0	1	1	n/a
116.32	0	button press	n/a	n/a	n/a	n/a	n/a	51
117.57	0	button press	n/a	n/a	n/a	n/a	n/a	55
117.87	0	button press	n/a	n/a	n/a	n/a	n/a	55
118.13	0	button press	n/a	n/a	n/a	n/a	n/a	55
118.42	0	button press	n/a	n/a	n/a	n/a	n/a	55
121.73	4.83	AA	0.73	5	0	3	3	n/a
122.46	0	button press	n/a	n/a	n/a	n/a	n/a	50
123.86	0	button press	n/a	n/a	n/a	n/a	n/a	55
124.28	0	button press	n/a	n/a	n/a	n/a	n/a	55
128.57	4.83	CA	0.97	1	0	1	3	n/a
129.30	0	button press	n/a	n/a	n/a	n/a	n/a	50
129.54	0	button press	n/a	n/a	n/a	n/a	n/a	50
130.52	0	button press	n/a	n/a	n/a	n/a	n/a	54
130.77	0	button press	n/a	n/a	n/a	n/a	n/a	54
131.02	0	button press	n/a	n/a	n/a	n/a	n/a	54
131.24	0	button press	n/a	n/a	n/a	n/a	n/a	54
136.80	4.83	CC	0.67	6	0	1	1	n/a
137.46	0	button press	n/a	n/a	n/a	n/a	n/a	51
138.66	0	button press	n/a	n/a	n/a	n/a	n/a	55
138.94	0	button press	n/a	n/a	n/a	n/a	n/a	55
139.18	0	button press	n/a	n/a	n/a	n/a	n/a	55
139.38	0	button press	n/a	n/a	n/a	n/a	n/a	55
139.78	0	button press	n/a	n/a	n/a	n/a	n/a	55
142.81	4.83	AA	1.27	5	0	3	3	n/a
144.07	0	button press	n/a	n/a	n/a	n/a	n/a	50
144.85	0	button press	n/a	n/a	n/a	n/a	n/a	55
145.09	0	button press	n/a	n/a	n/a	n/a	n/a	55
145.29	0	button press	n/a	n/a	n/a	n/a	n/a	55
150.91	4.83	CC	0.63	6	0	1	1	n/a
151.55	0	button press	n/a	n/a	n/a	n/a	n/a	51
152.76	0	button press	n/a	n/a	n/a	n/a	n/a	55
153.03	0	button press	n/a	n/a	n/a	n/a	n/a	55
153.24	0	button press	n/a	n/a	n/a	n/a	n/a	55
153.49	0	button press	n/a	n/a	n/a	n/a	n/a	55
153.94	0	button press	n/a	n/a	n/a	n/a	n/a	55
159.29	4.83	CC	0.60	6	0	1	1	n/a
159.89	0	button press	n/a	n/a	n/a	n/a	n/a	51
161.15	0	button press	n/a	n/a	n/a	n/a	n/a	55
161.42	0	button press	n/a	n/a	n/a	n/a	n/a	55
165.40	4.83	AA	0.72	6	0	3	3	n/a
166.11	0	button press	n/a	n/a	n/a	n/a	n/a	50
167.59	0	button press	n/a	n/a	n/a	n/a	n/a	55
167.86	0	button press	n/a	n/a	n/a	n/a	n/a	55
173.90	4.83	AC	1.10	1	0	3	1	n/a
175.00	0	button press	n/a	n/a	n/a	n/a	n/a	51
175.62	0	button press	n/a	n/a	n/a	n/a	n/a	54
182.31	4.83	CC	0.58	5	0	1	1	n/a
182.89	0	button press	n/a	n/a	n/a	n/a	n/a	51
184.47	0	button press	n/a	n/a	n/a	n/a	n/a	55
184.76	0	button press	n/a	n/a	n/a	n/a	n/a	55
184.96	0	button press	n/a	n/a	n/a	n/a	n/a	55
185.46	0	button press	n/a	n/a	n/a	n/a	n/a	55
186.29	0	button press	n/a	n/a	n/a	n/a	n/a	54
188.95	4.83	CC	0.60	5	0	1	1	n/a
189.55	0	button press	n/a	n/a	n/a	n/a	n/a	51
190.83	0	button press	n/a	n/a	n/a	n/a	n/a	55
191.18	0	button press	n/a	n/a	n/a	n/a	n/a	55
197.39	4.83	AA	0.78	3	0	3	3	n/a
198.18	0	button press	n/a	n/a	n/a	n/a	n/a	50
199.39	0	button press	n/a	n/a	n/a	n/a	n/a	55
199.67	0	button press	n/a	n/a	n/a	n/a	n/a	55
204.20	4.83	AC	0.77	1	0	3	1	n/a
204.97	0	button press	n/a	n/a	n/a	n/a	n/a	51
205.92	0	button press	n/a	n/a	n/a	n/a	n/a	54
210.19	4.83	AA	1.12	5	0	3	3	n/a
211.31	0	button press	n/a	n/a	n/a	n/a	n/a	50
212.23	0	button press	n/a	n/a	n/a	n/a	n/a	55
212.66	0	button press	n/a	n/a	n/a	n/a	n/a	54
212.91	0	button press	n/a	n/a	n/a	n/a	n/a	54
213.46	0	button press	n/a	n/a	n/a	n/a	n/a	55
213.71	0	button press	n/a	n/a	n/a	n/a	n/a	55
218.82	4.83	AA	1.28	3	0	3	3	n/a
220.10	0	button press	n/a	n/a	n/a	n/a	n/a	50
224.48	4.83	CC	0.65	5	0	1	1	n/a
225.13	0	button press	n/a	n/a	n/a	n/a	n/a	51
226.38	0	button press	n/a	n/a	n/a	n/a	n/a	55
227.56	0	button press	n/a	n/a	n/a	n/a	n/a	54
230.90	4.83	CA	0.75	3	0	1	3	n/a
231.65	0	button press	n/a	n/a	n/a	n/a	n/a	50
233.77	0	button press	n/a	n/a	n/a	n/a	n/a	55
239.66	4.83	AA	0.72	6	0	3	3	n/a
240.38	0	button press	n/a	n/a	n/a	n/a	n/a	50
241.72	0	button press	n/a	n/a	n/a	n/a	n/a	55
247.00	4.83	CC	0.70	4	0	1	1	n/a
247.70	0	button press	n/a	n/a	n/a	n/a	n/a	51
249.00	0	button press	n/a	n/a	n/a	n/a	n/a	54
249.50	0	button press	n/a	n/a	n/a	n/a	n/a	55
253.23	4.83	AA	0.78	1	0	3	3	n/a
254.01	0	button press	n/a	n/a	n/a	n/a	n/a	50
255.21	0	button press	n/a	n/a	n/a	n/a	n/a	54
261.97	4.83	AA	0.95	5	0	3	3	n/a
262.92	0	button press	n/a	n/a	n/a	n/a	n/a	50
263.87	0	button press	n/a	n/a	n/a	n/a	n/a	55
264.12	0	button press	n/a	n/a	n/a	n/a	n/a	55
268.94	4.83	AA	0.82	3	0	3	3	n/a
269.76	0	button press	n/a	n/a	n/a	n/a	n/a	50
271.06	0	button press	n/a	n/a	n/a	n/a	n/a	55
271.36	0	button press	n/a	n/a	n/a	n/a	n/a	55
275.04	4.83	AA	0.72	6	0	3	3	n/a
275.75	0	button press	n/a	n/a	n/a	n/a	n/a	50
276.87	0	button press	n/a	n/a	n/a	n/a	n/a	55
280.91	4.83	CC	0.63	5	0	1	1	n/a
281.55	0	button press	n/a	n/a	n/a	n/a	n/a	51
282.81	0	button press	n/a	n/a	n/a	n/a	n/a	55
283.09	0	button press	n/a	n/a	n/a	n/a	n/a	55
283.34	0	button press	n/a	n/a	n/a	n/a	n/a	55
283.56	0	button press	n/a	n/a	n/a	n/a	n/a	55
287.12	4.83	CC	0.65	5	0	1	1	n/a
287.77	0	button press	n/a	n/a	n/a	n/a	n/a	51
289.40	0	button press	n/a	n/a	n/a	n/a	n/a	54
293.15	4.83	CC	0.68	4	0	1	1	n/a
293.83	0	button press	n/a	n/a	n/a	n/a	n/a	51
295.15	0	button press	n/a	n/a	n/a	n/a	n/a	55
295.45	0	button press	n/a	n/a	n/a	n/a	n/a	55
295.78	0	button press	n/a	n/a	n/a	n/a	n/a	55
299.13	4.83	AA	0.78	3	0	3	3	n/a
299.91	0	button press	n/a	n/a	n/a	n/a	n/a	50
301.19	0	button press	n/a	n/a	n/a	n/a	n/a	54
301.56	0	button press	n/a	n/a	n/a	n/a	n/a	54
307.92	4.83	CC	1.23	1	0	1	1	n/a
309.15	0	button press	n/a	n/a	n/a	n/a	n/a	51
324.80	4.83	NN	0.70	6	1	0	0	n/a
325.50	0	button press	n/a	n/a	n/a	n/a	n/a	51
326.96	0	button press	n/a	n/a	n/a	n/a	n/a	55
327.54	0	button press	n/a	n/a	n/a	n/a	n/a	55
327.88	0	button press	n/a	n/a	n/a	n/a	n/a	55
330.57	4.83	YY	0.58	6	1	3	1	n/a
331.16	0	button press	n/a	n/a	n/a	n/a	n/a	50
332.44	0	button press	n/a	n/a	n/a	n/a	n/a	55
332.70	0	button press	n/a	n/a	n/a	n/a	n/a	55
332.92	0	button press	n/a	n/a	n/a	n/a	n/a	55
333.17	0	button press	n/a	n/a	n/a	n/a	n/a	55
338.91	4.83	YY	0.70	6	1	1	1	n/a
339.61	0	button press	n/a	n/a	n/a	n/a	n/a	50
347.74	4.83	NN	0.95	3	1	0	0	n/a
348.69	0	button press	n/a	n/a	n/a	n/a	n/a	51
354.31	4.83	NN	0.62	6	1	0	0	n/a
354.93	0	button press	n/a	n/a	n/a	n/a	n/a	51
356.14	0	button press	n/a	n/a	n/a	n/a	n/a	55
356.54	0	button press	n/a	n/a	n/a	n/a	n/a	55
360.69	4.83	YY	0.82	5	1	3	1	n/a
361.50	0	button press	n/a	n/a	n/a	n/a	n/a	50
366.48	4.83	YY	0.80	5	1	1	1	n/a
367.28	0	button press	n/a	n/a	n/a	n/a	n/a	50
368.71	0	button press	n/a	n/a	n/a	n/a	n/a	55
374.77	4.83	NN	0.58	6	1	0	0	n/a
375.35	0	button press	n/a	n/a	n/a	n/a	n/a	51
376.74	0	button press	n/a	n/a	n/a	n/a	n/a	55
376.97	0	button press	n/a	n/a	n/a	n/a	n/a	55
377.24	0	button press	n/a	n/a	n/a	n/a	n/a	55
377.47	0	button press	n/a	n/a	n/a	n/a	n/a	55
377.82	0	button press	n/a	n/a	n/a	n/a	n/a	55
380.88	4.83	missed_trial	n/a	n/a	1	3	n/a	n/a
389.39	4.83	YY	0.82	4	1	1	1	n/a
390.20	0	button press	n/a	n/a	n/a	n/a	n/a	50
391.35	0	button press	n/a	n/a	n/a	n/a	n/a	55
391.62	0	button press	n/a	n/a	n/a	n/a	n/a	55
393.09	0	button press	n/a	n/a	n/a	n/a	n/a	55
397.13	4.83	NN	0.62	5	1	0	0	n/a
397.75	0	button press	n/a	n/a	n/a	n/a	n/a	51
399.08	0	button press	n/a	n/a	n/a	n/a	n/a	55
405.79	4.83	NN	0.67	3	1	0	0	n/a
406.45	0	button press	n/a	n/a	n/a	n/a	n/a	51
407.92	0	button press	n/a	n/a	n/a	n/a	n/a	55
408.23	0	button press	n/a	n/a	n/a	n/a	n/a	55
414.16	4.83	NN	0.65	6	1	0	0	n/a
414.81	0	button press	n/a	n/a	n/a	n/a	n/a	51
416.24	0	button press	n/a	n/a	n/a	n/a	n/a	55
416.47	0	button press	n/a	n/a	n/a	n/a	n/a	55
422.58	4.83	NN	0.88	4	1	0	0	n/a
423.47	0	button press	n/a	n/a	n/a	n/a	n/a	51
424.93	0	button press	n/a	n/a	n/a	n/a	n/a	55
425.36	0	button press	n/a	n/a	n/a	n/a	n/a	55
426.20	0	button press	n/a	n/a	n/a	n/a	n/a	54
429.14	4.83	NY	0.87	3	1	0	1	n/a
430.01	0	button press	n/a	n/a	n/a	n/a	n/a	50
434.97	4.83	NN	0.73	6	1	0	0	n/a
435.70	0	button press	n/a	n/a	n/a	n/a	n/a	51
436.87	0	button press	n/a	n/a	n/a	n/a	n/a	55
437.13	0	button press	n/a	n/a	n/a	n/a	n/a	55
437.38	0	button press	n/a	n/a	n/a	n/a	n/a	55
441.99	4.83	NN	0.60	6	1	0	0	n/a
442.59	0	button press	n/a	n/a	n/a	n/a	n/a	51
443.89	0	button press	n/a	n/a	n/a	n/a	n/a	55
450.00	4.83	YY	0.57	5	1	1	1	n/a
450.57	0	button press	n/a	n/a	n/a	n/a	n/a	50
451.95	0	button press	n/a	n/a	n/a	n/a	n/a	55
452.50	0	button press	n/a	n/a	n/a	n/a	n/a	55
457.88	4.83	NN	0.64	6	1	0	0	n/a
458.51	0	button press	n/a	n/a	n/a	n/a	n/a	51
459.83	0	button press	n/a	n/a	n/a	n/a	n/a	55
466.02	4.83	NN	0.67	6	1	0	0	n/a
466.68	0	button press	n/a	n/a	n/a	n/a	n/a	51
473.97	4.83	YY	0.85	5	1	3	1	n/a
474.82	0	button press	n/a	n/a	n/a	n/a	n/a	50
476.04	0	button press	n/a	n/a	n/a	n/a	n/a	55
476.42	0	button press	n/a	n/a	n/a	n/a	n/a	55
482.71	4.83	NN	0.58	6	1	0	0	n/a
483.30	0	button press	n/a	n/a	n/a	n/a	n/a	51
491.14	4.83	YY	0.72	5	1	3	1	n/a
491.85	0	button press	n/a	n/a	n/a	n/a	n/a	50
493.15	0	button press	n/a	n/a	n/a	n/a	n/a	55
493.75	0	button press	n/a	n/a	n/a	n/a	n/a	55
494.05	0	button press	n/a	n/a	n/a	n/a	n/a	55
496.96	4.83	NN	0.72	4	1	0	0	n/a
497.68	0	button press	n/a	n/a	n/a	n/a	n/a	51
499.60	0	button press	n/a	n/a	n/a	n/a	n/a	54
503.49	4.83	NN	0.62	6	1	0	0	n/a
504.11	0	button press	n/a	n/a	n/a	n/a	n/a	51
505.97	0	button press	n/a	n/a	n/a	n/a	n/a	54
507.22	0	button press	n/a	n/a	n/a	n/a	n/a	55
509.38	4.83	YY	0.57	5	1	1	1	n/a
509.95	0	button press	n/a	n/a	n/a	n/a	n/a	50
512.05	0	button press	n/a	n/a	n/a	n/a	n/a	55
517.84	4.83	YY	0.75	5	1	3	1	n/a
518.59	0	button press	n/a	n/a	n/a	n/a	n/a	50
520.12	0	button press	n/a	n/a	n/a	n/a	n/a	55
526.33	4.83	NN	0.87	2	1	0	0	n/a
527.20	0	button press	n/a	n/a	n/a	n/a	n/a	51
528.25	0	button press	n/a	n/a	n/a	n/a	n/a	54
528.55	0	button press	n/a	n/a	n/a	n/a	n/a	54
528.83	0	button press	n/a	n/a	n/a	n/a	n/a	54
529.14	0	button press	n/a	n/a	n/a	n/a	n/a	54
532.11	4.83	YN	1.03	4	1	1	0	n/a
533.14	0	button press	n/a	n/a	n/a	n/a	n/a	51
533.94	0	button press	n/a	n/a	n/a	n/a	n/a	55
534.22	0	button press	n/a	n/a	n/a	n/a	n/a	55
534.47	0	button press	n/a	n/a	n/a	n/a	n/a	55
538.37	4.83	YY	0.65	6	1	1	1	n/a
539.02	0	button press	n/a	n/a	n/a	n/a	n/a	50
545.14	4.83	YY	0.70	5	1	3	1	n/a
545.84	0	button press	n/a	n/a	n/a	n/a	n/a	50
553.65	4.83	NN	0.67	6	1	0	0	n/a
554.32	0	button press	n/a	n/a	n/a	n/a	n/a	51
556.11	0	button press	n/a	n/a	n/a	n/a	n/a	55
556.56	0	button press	n/a	n/a	n/a	n/a	n/a	55
562.17	4.83	YY	0.98	2	1	1	1	n/a
563.16	0	button press	n/a	n/a	n/a	n/a	n/a	50
564.07	0	button press	n/a	n/a	n/a	n/a	n/a	54
564.34	0	button press	n/a	n/a	n/a	n/a	n/a	54
564.62	0	button press	n/a	n/a	n/a	n/a	n/a	54
564.85	0	button press	n/a	n/a	n/a	n/a	n/a	54
570.71	4.83	YY	0.67	5	1	3	1	n/a
571.38	0	button press	n/a	n/a	n/a	n/a	n/a	50
572.60	0	button press	n/a	n/a	n/a	n/a	n/a	55
572.86	0	button press	n/a	n/a	n/a	n/a	n/a	55
573.36	0	button press	n/a	n/a	n/a	n/a	n/a	55
578.44	4.83	YY	0.68	6	1	1	1	n/a
579.12	0	button press	n/a	n/a	n/a	n/a	n/a	50
581.17	0	button press	n/a	n/a	n/a	n/a	n/a	55
581.43	0	button press	n/a	n/a	n/a	n/a	n/a	55
581.65	0	button press	n/a	n/a	n/a	n/a	n/a	55
581.85	0	button press	n/a	n/a	n/a	n/a	n/a	55
582.07	0	button press	n/a	n/a	n/a	n/a	n/a	55
584.08	4.83	YY	0.77	5	1	1	1	n/a
584.85	0	button press	n/a	n/a	n/a	n/a	n/a	50
586.03	0	button press	n/a	n/a	n/a	n/a	n/a	55
586.26	0	button press	n/a	n/a	n/a	n/a	n/a	55
591.92	4.83	YY	1.07	3	1	3	1	n/a
592.99	0	button press	n/a	n/a	n/a	n/a	n/a	50
595.32	0	button press	n/a	n/a	n/a	n/a	n/a	55
598.35	4.83	YY	0.57	6	1	3	1	n/a
598.91	0	button press	n/a	n/a	n/a	n/a	n/a	50
605.91	4.83	NN	0.93	3	1	0	0	n/a
606.84	0	button press	n/a	n/a	n/a	n/a	n/a	51
607.94	0	button press	n/a	n/a	n/a	n/a	n/a	55
608.44	0	button press	n/a	n/a	n/a	n/a	n/a	55
611.83	4.83	NN	0.77	6	1	0	0	n/a
612.60	0	button press	n/a	n/a	n/a	n/a	n/a	51
