onset	duration	trial_type	response_time	confidence	detection	stimulus	response	key_id
26.86	4.83	YY	1.01	6	1	3	1	n/a
27.87	0	button press	n/a	n/a	n/a	n/a	n/a	51
28.99	0	button press	n/a	n/a	n/a	n/a	n/a	54
29.52	0	button press	n/a	n/a	n/a	n/a	n/a	54
29.80	0	button press	n/a	n/a	n/a	n/a	n/a	54
30.05	0	button press	n/a	n/a	n/a	n/a	n/a	54
30.33	0	button press	n/a	n/a	n/a	n/a	n/a	54
34.13	4.83	YY	0.78	5	1	1	1	n/a
34.91	0	button press	n/a	n/a	n/a	n/a	n/a	51
36.29	0	button press	n/a	n/a	n/a	n/a	n/a	54
36.58	0	button press	n/a	n/a	n/a	n/a	n/a	54
36.81	0	button press	n/a	n/a	n/a	n/a	n/a	54
40.61	4.83	YN	0.80	2	1	1	0	n/a
41.40	0	button press	n/a	n/a	n/a	n/a	n/a	50
43.00	0	button press	n/a	n/a	n/a	n/a	n/a	54
43.47	0	button press	n/a	n/a	n/a	n/a	n/a	55
43.97	0	button press	n/a	n/a	n/a	n/a	n/a	55
48.95	4.83	YN	0.95	2	1	1	0	n/a
49.89	0	button press	n/a	n/a	n/a	n/a	n/a	50
51.19	0	button press	n/a	n/a	n/a	n/a	n/a	55
51.54	0	button press	n/a	n/a	n/a	n/a	n/a	55
52.34	0	button press	n/a	n/a	n/a	n/a	n/a	55
57.01	4.83	NN	1.12	2	1	0	0	n/a
58.12	0	button press	n/a	n/a	n/a	n/a	n/a	50
59.45	0	button press	n/a	n/a	n/a	n/a	n/a	54
60.07	0	button press	n/a	n/a	n/a	n/a	n/a	54
60.60	0	button press	n/a	n/a	n/a	n/a	n/a	55
63.31	4.83	YY	0.78	6	1	3	1	n/a
64.09	0	button press	n/a	n/a	n/a	n/a	n/a	51
65.13	0	button press	n/a	n/a	n/a	n/a	n/a	54
65.51	0	button press	n/a	n/a	n/a	n/a	n/a	54
65.73	0	button press	n/a	n/a	n/a	n/a	n/a	54
66.18	0	button press	n/a	n/a	n/a	n/a	n/a	54
69.27	4.83	YY	0.80	6	1	3	1	n/a
70.07	0	button press	n/a	n/a	n/a	n/a	n/a	51
70.97	0	button press	n/a	n/a	n/a	n/a	n/a	54
71.19	0	button press	n/a	n/a	n/a	n/a	n/a	54
77.81	4.83	NN	0.97	2	1	0	0	n/a
78.78	0	button press	n/a	n/a	n/a	n/a	n/a	50
80.46	0	button press	n/a	n/a	n/a	n/a	n/a	55
84.85	4.83	NN	1.00	3	1	0	0	n/a
85.85	0	button press	n/a	n/a	n/a	n/a	n/a	50
87.83	0	button press	n/a	n/a	n/a	n/a	n/a	54
88.12	0	button press	n/a	n/a	n/a	n/a	n/a	54
90.61	4.83	NN	0.82	2	1	0	0	n/a
91.43	0	button press	n/a	n/a	n/a	n/a	n/a	50
92.58	0	button press	n/a	n/a	n/a	n/a	n/a	54
93.04	0	button press	n/a	n/a	n/a	n/a	n/a	55
93.31	0	button press	n/a	n/a	n/a	n/a	n/a	55
93.61	0	button press	n/a	n/a	n/a	n/a	n/a	55
93.91	0	button press	n/a	n/a	n/a	n/a	n/a	55
94.80	0	button press	n/a	n/a	n/a	n/a	n/a	54
99.22	4.83	YY	0.83	6	1	1	1	n/a
100.05	0	button press	n/a	n/a	n/a	n/a	n/a	51
101.05	0	button press	n/a	n/a	n/a	n/a	n/a	54
101.27	0	button press	n/a	n/a	n/a	n/a	n/a	54
107.16	4.83	NY	0.68	4	1	0	1	n/a
107.84	0	button press	n/a	n/a	n/a	n/a	n/a	51
109.48	0	button press	n/a	n/a	n/a	n/a	n/a	54
109.81	0	button press	n/a	n/a	n/a	n/a	n/a	54
110.26	0	button press	n/a	n/a	n/a	n/a	n/a	54
115.33	4.83	NY	1.05	2	1	0	1	n/a
116.38	0	button press	n/a	n/a	n/a	n/a	n/a	51
117.72	0	button press	n/a	n/a	n/a	n/a	n/a	55
118.48	0	button press	n/a	n/a	n/a	n/a	n/a	55
118.93	0	button press	n/a	n/a	n/a	n/a	n/a	55
120.96	4.83	YY	0.73	6	1	1	1	n/a
121.69	0	button press	n/a	n/a	n/a	n/a	n/a	51
122.11	0	button press	n/a	n/a	n/a	n/a	n/a	54
122.79	0	button press	n/a	n/a	n/a	n/a	n/a	54
123.04	0	button press	n/a	n/a	n/a	n/a	n/a	54
128.57	4.83	NY	0.98	2	1	0	1	n/a
129.55	0	button press	n/a	n/a	n/a	n/a	n/a	51
130.98	0	button press	n/a	n/a	n/a	n/a	n/a	55
131.28	0	button press	n/a	n/a	n/a	n/a	n/a	55
135.63	4.83	YY	1.53	2	1	3	1	n/a
137.16	0	button press	n/a	n/a	n/a	n/a	n/a	51
137.86	0	button press	n/a	n/a	n/a	n/a	n/a	55
138.14	0	button press	n/a	n/a	n/a	n/a	n/a	55
138.39	0	button press	n/a	n/a	n/a	n/a	n/a	55
139.57	0	button press	n/a	n/a	n/a	n/a	n/a	55
139.79	0	button press	n/a	n/a	n/a	n/a	n/a	55
143.25	4.83	NN	0.82	1	1	0	0	n/a
144.07	0	button press	n/a	n/a	n/a	n/a	n/a	50
145.23	0	button press	n/a	n/a	n/a	n/a	n/a	55
145.43	0	button press	n/a	n/a	n/a	n/a	n/a	55
149.86	4.83	NN	1.02	1	1	0	0	n/a
150.88	0	button press	n/a	n/a	n/a	n/a	n/a	50
151.89	0	button press	n/a	n/a	n/a	n/a	n/a	54
152.54	0	button press	n/a	n/a	n/a	n/a	n/a	55
157.92	4.83	NY	1.00	2	1	0	1	n/a
158.92	0	button press	n/a	n/a	n/a	n/a	n/a	51
160.28	0	button press	n/a	n/a	n/a	n/a	n/a	55
160.50	0	button press	n/a	n/a	n/a	n/a	n/a	55
160.70	0	button press	n/a	n/a	n/a	n/a	n/a	55
161.15	0	button press	n/a	n/a	n/a	n/a	n/a	55
165.96	4.83	YN	0.97	3	1	3	0	n/a
166.92	0	button press	n/a	n/a	n/a	n/a	n/a	50
168.79	0	button press	n/a	n/a	n/a	n/a	n/a	54
173.22	4.83	NY	1.30	2	1	0	1	n/a
174.52	0	button press	n/a	n/a	n/a	n/a	n/a	51
175.57	0	button press	n/a	n/a	n/a	n/a	n/a	54
180.64	4.83	missed_trial	n/a	n/a	1	1	n/a	n/a
182.51	0	button press	n/a	n/a	n/a	n/a	n/a	50
189.05	4.83	YN	0.87	3	1	1	0	n/a
189.92	0	button press	n/a	n/a	n/a	n/a	n/a	50
191.66	0	button press	n/a	n/a	n/a	n/a	n/a	55
197.01	4.83	NN	0.90	3	1	0	0	n/a
197.91	0	button press	n/a	n/a	n/a	n/a	n/a	50
199.29	0	button press	n/a	n/a	n/a	n/a	n/a	55
199.54	0	button press	n/a	n/a	n/a	n/a	n/a	55
199.75	0	button press	n/a	n/a	n/a	n/a	n/a	55
204.13	4.83	NY	0.80	6	1	0	1	n/a
204.93	0	button press	n/a	n/a	n/a	n/a	n/a	51
205.85	0	button press	n/a	n/a	n/a	n/a	n/a	54
209.94	4.83	YY	0.65	6	1	1	1	n/a
210.59	0	button press	n/a	n/a	n/a	n/a	n/a	51
211.74	0	button press	n/a	n/a	n/a	n/a	n/a	54
212.11	0	button press	n/a	n/a	n/a	n/a	n/a	54
212.37	0	button press	n/a	n/a	n/a	n/a	n/a	54
212.99	0	button press	n/a	n/a	n/a	n/a	n/a	54
216.07	4.83	NY	0.72	6	1	0	1	n/a
216.78	0	button press	n/a	n/a	n/a	n/a	n/a	51
217.93	0	button press	n/a	n/a	n/a	n/a	n/a	54
218.85	0	button press	n/a	n/a	n/a	n/a	n/a	54
223.88	4.83	YN	0.98	3	1	3	0	n/a
224.86	0	button press	n/a	n/a	n/a	n/a	n/a	50
226.51	0	button press	n/a	n/a	n/a	n/a	n/a	55
226.97	0	button press	n/a	n/a	n/a	n/a	n/a	55
227.27	0	button press	n/a	n/a	n/a	n/a	n/a	55
232.18	4.83	NN	1.05	2	1	0	0	n/a
233.23	0	button press	n/a	n/a	n/a	n/a	n/a	50
235.56	0	button press	n/a	n/a	n/a	n/a	n/a	55
236.14	0	button press	n/a	n/a	n/a	n/a	n/a	54
239.72	4.83	YY	1.30	3	1	3	1	n/a
241.02	0	button press	n/a	n/a	n/a	n/a	n/a	51
247.93	4.83	NN	0.78	2	1	0	0	n/a
248.71	0	button press	n/a	n/a	n/a	n/a	n/a	50
250.48	0	button press	n/a	n/a	n/a	n/a	n/a	55
255.74	4.83	NY	1.27	5	1	0	1	n/a
257.00	0	button press	n/a	n/a	n/a	n/a	n/a	51
257.84	0	button press	n/a	n/a	n/a	n/a	n/a	54
258.05	0	button press	n/a	n/a	n/a	n/a	n/a	54
258.29	0	button press	n/a	n/a	n/a	n/a	n/a	54
258.67	0	button press	n/a	n/a	n/a	n/a	n/a	54
264.11	4.83	NN	0.80	3	1	0	0	n/a
264.91	0	button press	n/a	n/a	n/a	n/a	n/a	50
266.64	0	button press	n/a	n/a	n/a	n/a	n/a	54
266.94	0	button press	n/a	n/a	n/a	n/a	n/a	54
272.70	4.83	NN	1.25	2	1	0	0	n/a
273.95	0	button press	n/a	n/a	n/a	n/a	n/a	50
275.63	0	button press	n/a	n/a	n/a	n/a	n/a	55
276.13	0	button press	n/a	n/a	n/a	n/a	n/a	55
280.01	4.83	missed_trial	n/a	n/a	1	3	n/a	n/a
281.86	0	button press	n/a	n/a	n/a	n/a	n/a	50
286.69	4.83	YY	0.72	6	1	1	1	n/a
287.40	0	button press	n/a	n/a	n/a	n/a	n/a	51
288.38	0	button press	n/a	n/a	n/a	n/a	n/a	54
288.63	0	button press	n/a	n/a	n/a	n/a	n/a	54
288.83	0	button press	n/a	n/a	n/a	n/a	n/a	54
289.17	0	button press	n/a	n/a	n/a	n/a	n/a	54
292.61	4.83	YN	1.25	1	1	3	0	n/a
293.86	0	button press	n/a	n/a	n/a	n/a	n/a	50
295.41	0	button press	n/a	n/a	n/a	n/a	n/a	55
299.52	4.83	NN	1.45	3	1	0	0	n/a
300.97	0	button press	n/a	n/a	n/a	n/a	n/a	50
301.77	0	button press	n/a	n/a	n/a	n/a	n/a	55
302.02	0	button press	n/a	n/a	n/a	n/a	n/a	55
302.25	0	button press	n/a	n/a	n/a	n/a	n/a	55
302.95	0	button press	n/a	n/a	n/a	n/a	n/a	54
306.01	4.83	YY	0.67	6	1	1	1	n/a
306.68	0	button press	n/a	n/a	n/a	n/a	n/a	51
307.63	0	button press	n/a	n/a	n/a	n/a	n/a	54
307.98	0	button press	n/a	n/a	n/a	n/a	n/a	54
308.21	0	button press	n/a	n/a	n/a	n/a	n/a	54
311.99	4.83	YN	1.38	1	1	3	0	n/a
313.37	0	button press	n/a	n/a	n/a	n/a	n/a	50
314.67	0	button press	n/a	n/a	n/a	n/a	n/a	55
327.94	4.83	CC	0.88	6	0	1	1	n/a
328.82	0	button press	n/a	n/a	n/a	n/a	n/a	50
329.92	0	button press	n/a	n/a	n/a	n/a	n/a	54
330.19	0	button press	n/a	n/a	n/a	n/a	n/a	54
334.40	4.83	AA	0.93	3	0	3	3	n/a
335.33	0	button press	n/a	n/a	n/a	n/a	n/a	51
337.01	0	button press	n/a	n/a	n/a	n/a	n/a	54
340.97	4.83	AC	1.33	2	0	3	1	n/a
342.30	0	button press	n/a	n/a	n/a	n/a	n/a	50
343.40	0	button press	n/a	n/a	n/a	n/a	n/a	55
349.30	4.83	AC	0.77	5	0	3	1	n/a
350.06	0	button press	n/a	n/a	n/a	n/a	n/a	50
351.46	0	button press	n/a	n/a	n/a	n/a	n/a	54
351.93	0	button press	n/a	n/a	n/a	n/a	n/a	54
356.84	4.83	AA	0.77	6	0	3	3	n/a
357.60	0	button press	n/a	n/a	n/a	n/a	n/a	51
358.62	0	button press	n/a	n/a	n/a	n/a	n/a	54
358.94	0	button press	n/a	n/a	n/a	n/a	n/a	54
359.20	0	button press	n/a	n/a	n/a	n/a	n/a	54
364.73	4.83	AA	0.73	6	0	3	3	n/a
365.46	0	button press	n/a	n/a	n/a	n/a	n/a	51
366.64	0	button press	n/a	n/a	n/a	n/a	n/a	54
366.98	0	button press	n/a	n/a	n/a	n/a	n/a	54
367.29	0	button press	n/a	n/a	n/a	n/a	n/a	54
371.99	4.83	AC	1.28	1	0	3	1	n/a
373.27	0	button press	n/a	n/a	n/a	n/a	n/a	50
374.72	0	button press	n/a	n/a	n/a	n/a	n/a	54
375.62	0	button press	n/a	n/a	n/a	n/a	n/a	55
378.78	4.83	AA	1.00	4	0	3	3	n/a
379.78	0	button press	n/a	n/a	n/a	n/a	n/a	51
387.25	4.83	AA	1.10	3	0	3	3	n/a
388.35	0	button press	n/a	n/a	n/a	n/a	n/a	51
389.55	0	button press	n/a	n/a	n/a	n/a	n/a	55
389.90	0	button press	n/a	n/a	n/a	n/a	n/a	55
390.38	0	button press	n/a	n/a	n/a	n/a	n/a	55
390.90	0	button press	n/a	n/a	n/a	n/a	n/a	54
395.78	4.83	CC	0.88	3	0	1	1	n/a
396.66	0	button press	n/a	n/a	n/a	n/a	n/a	50
398.04	0	button press	n/a	n/a	n/a	n/a	n/a	54
402.34	4.83	AA	1.31	1	0	3	3	n/a
403.65	0	button press	n/a	n/a	n/a	n/a	n/a	51
404.67	0	button press	n/a	n/a	n/a	n/a	n/a	55
404.93	0	button press	n/a	n/a	n/a	n/a	n/a	55
408.74	4.83	AC	1.18	2	0	3	1	n/a
409.93	0	button press	n/a	n/a	n/a	n/a	n/a	50
410.83	0	button press	n/a	n/a	n/a	n/a	n/a	55
411.09	0	button press	n/a	n/a	n/a	n/a	n/a	55
411.32	0	button press	n/a	n/a	n/a	n/a	n/a	55
415.59	4.83	CC	1.25	2	0	1	1	n/a
416.83	0	button press	n/a	n/a	n/a	n/a	n/a	50
418.17	0	button press	n/a	n/a	n/a	n/a	n/a	54
418.83	0	button press	n/a	n/a	n/a	n/a	n/a	55
423.86	4.83	AC	1.35	2	0	3	1	n/a
425.21	0	button press	n/a	n/a	n/a	n/a	n/a	50
426.16	0	button press	n/a	n/a	n/a	n/a	n/a	55
426.42	0	button press	n/a	n/a	n/a	n/a	n/a	55
426.72	0	button press	n/a	n/a	n/a	n/a	n/a	55
430.05	4.83	CC	0.72	6	0	1	1	n/a
430.77	0	button press	n/a	n/a	n/a	n/a	n/a	50
431.88	0	button press	n/a	n/a	n/a	n/a	n/a	54
432.33	0	button press	n/a	n/a	n/a	n/a	n/a	54
432.77	0	button press	n/a	n/a	n/a	n/a	n/a	55
433.03	0	button press	n/a	n/a	n/a	n/a	n/a	54
436.76	4.83	CC	0.90	6	0	1	1	n/a
437.66	0	button press	n/a	n/a	n/a	n/a	n/a	50
438.91	0	button press	n/a	n/a	n/a	n/a	n/a	54
439.18	0	button press	n/a	n/a	n/a	n/a	n/a	54
439.41	0	button press	n/a	n/a	n/a	n/a	n/a	54
439.77	0	button press	n/a	n/a	n/a	n/a	n/a	54
443.87	4.83	AA	0.85	4	0	3	3	n/a
444.72	0	button press	n/a	n/a	n/a	n/a	n/a	51
450.63	4.83	AC	1.17	6	0	3	1	n/a
451.79	0	button press	n/a	n/a	n/a	n/a	n/a	50
452.69	0	button press	n/a	n/a	n/a	n/a	n/a	54
452.96	0	button press	n/a	n/a	n/a	n/a	n/a	54
453.19	0	button press	n/a	n/a	n/a	n/a	n/a	54
453.43	0	button press	n/a	n/a	n/a	n/a	n/a	54
459.37	4.83	CA	1.33	3	0	1	3	n/a
460.70	0	button press	n/a	n/a	n/a	n/a	n/a	51
462.07	0	button press	n/a	n/a	n/a	n/a	n/a	55
463.41	0	button press	n/a	n/a	n/a	n/a	n/a	55
465.11	4.83	AA	0.92	3	0	3	3	n/a
466.03	0	button press	n/a	n/a	n/a	n/a	n/a	51
466.99	0	button press	n/a	n/a	n/a	n/a	n/a	55
467.26	0	button press	n/a	n/a	n/a	n/a	n/a	55
467.51	0	button press	n/a	n/a	n/a	n/a	n/a	55
467.91	0	button press	n/a	n/a	n/a	n/a	n/a	54
472.90	4.83	AA	0.73	5	0	3	3	n/a
473.64	0	button press	n/a	n/a	n/a	n/a	n/a	51
475.80	0	button press	n/a	n/a	n/a	n/a	n/a	55
476.02	0	button press	n/a	n/a	n/a	n/a	n/a	54
480.29	4.83	missed_trial	n/a	n/a	0	1	n/a	n/a
481.93	0	button press	n/a	n/a	n/a	n/a	n/a	51
486.50	4.83	CC	0.93	1	0	1	1	n/a
487.44	0	button press	n/a	n/a	n/a	n/a	n/a	50
488.35	0	button press	n/a	n/a	n/a	n/a	n/a	55
488.63	0	button press	n/a	n/a	n/a	n/a	n/a	55
488.83	0	button press	n/a	n/a	n/a	n/a	n/a	55
494.78	4.83	CC	0.72	6	0	1	1	n/a
495.49	0	button press	n/a	n/a	n/a	n/a	n/a	50
496.81	0	button press	n/a	n/a	n/a	n/a	n/a	54
497.16	0	button press	n/a	n/a	n/a	n/a	n/a	54
497.59	0	button press	n/a	n/a	n/a	n/a	n/a	54
497.79	0	button press	n/a	n/a	n/a	n/a	n/a	54
503.28	4.83	AC	0.68	5	0	3	1	n/a
503.97	0	button press	n/a	n/a	n/a	n/a	n/a	50
505.18	0	button press	n/a	n/a	n/a	n/a	n/a	54
510.04	4.83	AC	1.25	2	0	3	1	n/a
511.29	0	button press	n/a	n/a	n/a	n/a	n/a	50
513.12	0	button press	n/a	n/a	n/a	n/a	n/a	54
513.41	0	button press	n/a	n/a	n/a	n/a	n/a	55
516.94	4.83	CC	0.63	6	0	1	1	n/a
517.57	0	button press	n/a	n/a	n/a	n/a	n/a	50
518.78	0	button press	n/a	n/a	n/a	n/a	n/a	54
519.08	0	button press	n/a	n/a	n/a	n/a	n/a	54
519.32	0	button press	n/a	n/a	n/a	n/a	n/a	54
519.52	0	button press	n/a	n/a	n/a	n/a	n/a	54
519.77	0	button press	n/a	n/a	n/a	n/a	n/a	54
520.03	0	button press	n/a	n/a	n/a	n/a	n/a	54
524.41	4.83	missed_trial	n/a	n/a	0	1	n/a	n/a
526.03	0	button press	n/a	n/a	n/a	n/a	n/a	51
530.09	4.83	AA	0.78	3	0	3	3	n/a
530.87	0	button press	n/a	n/a	n/a	n/a	n/a	51
532.42	0	button press	n/a	n/a	n/a	n/a	n/a	54
537.91	4.83	CC	1.40	2	0	1	1	n/a
539.31	0	button press	n/a	n/a	n/a	n/a	n/a	50
540.01	0	button press	n/a	n/a	n/a	n/a	n/a	54
544.25	4.83	CC	0.82	5	0	1	1	n/a
545.07	0	button press	n/a	n/a	n/a	n/a	n/a	50
546.77	0	button press	n/a	n/a	n/a	n/a	n/a	55
551.89	4.83	CA	0.95	3	0	1	3	n/a
552.84	0	button press	n/a	n/a	n/a	n/a	n/a	51
554.14	0	button press	n/a	n/a	n/a	n/a	n/a	54
554.72	0	button press	n/a	n/a	n/a	n/a	n/a	54
558.64	4.83	CC	1.30	6	0	1	1	n/a
559.94	0	button press	n/a	n/a	n/a	n/a	n/a	50
560.87	0	button press	n/a	n/a	n/a	n/a	n/a	54
561.13	0	button press	n/a	n/a	n/a	n/a	n/a	54
561.35	0	button press	n/a	n/a	n/a	n/a	n/a	54
561.53	0	button press	n/a	n/a	n/a	n/a	n/a	54
566.48	4.83	AC	0.85	4	0	3	1	n/a
567.33	0	button press	n/a	n/a	n/a	n/a	n/a	50
568.96	0	button press	n/a	n/a	n/a	n/a	n/a	55
572.74	4.83	CA	1.00	2	0	1	3	n/a
573.74	0	button press	n/a	n/a	n/a	n/a	n/a	51
575.28	0	button press	n/a	n/a	n/a	n/a	n/a	54
580.11	4.83	CC	0.72	5	0	1	1	n/a
580.83	0	button press	n/a	n/a	n/a	n/a	n/a	50
582.28	0	button press	n/a	n/a	n/a	n/a	n/a	54
583.42	0	button press	n/a	n/a	n/a	n/a	n/a	54
588.17	4.83	CC	0.75	6	0	1	1	n/a
588.92	0	button press	n/a	n/a	n/a	n/a	n/a	50
590.08	0	button press	n/a	n/a	n/a	n/a	n/a	54
590.35	0	button press	n/a	n/a	n/a	n/a	n/a	54
590.60	0	button press	n/a	n/a	n/a	n/a	n/a	54
590.77	0	button press	n/a	n/a	n/a	n/a	n/a	54
595.71	4.83	CC	0.75	6	0	1	1	n/a
596.46	0	button press	n/a	n/a	n/a	n/a	n/a	50
597.74	0	button press	n/a	n/a	n/a	n/a	n/a	54
598.06	0	button press	n/a	n/a	n/a	n/a	n/a	54
598.26	0	button press	n/a	n/a	n/a	n/a	n/a	54
598.64	0	button press	n/a	n/a	n/a	n/a	n/a	54
603.85	4.83	AC	1.08	4	0	3	1	n/a
604.93	0	button press	n/a	n/a	n/a	n/a	n/a	50
605.97	0	button press	n/a	n/a	n/a	n/a	n/a	55
606.36	0	button press	n/a	n/a	n/a	n/a	n/a	54
606.86	0	button press	n/a	n/a	n/a	n/a	n/a	54
607.15	0	button press	n/a	n/a	n/a	n/a	n/a	54
610.06	4.83	CA	0.92	1	0	1	3	n/a
610.98	0	button press	n/a	n/a	n/a	n/a	n/a	51
612.69	0	button press	n/a	n/a	n/a	n/a	n/a	55
