onset	duration	trial_type	response_time	confidence	detection	stimulus	response	key_id
26.83	4.83	AC	0.83	2	0	3	1	n/a
27.65	0	button press	n/a	n/a	n/a	n/a	n/a	51
28.89	0	button press	n/a	n/a	n/a	n/a	n/a	54
29.15	0	button press	n/a	n/a	n/a	n/a	n/a	54
29.45	0	button press	n/a	n/a	n/a	n/a	n/a	54
30.15	0	button press	n/a	n/a	n/a	n/a	n/a	54
35.00	4.83	CC	0.63	4	0	1	1	n/a
35.63	0	button press	n/a	n/a	n/a	n/a	n/a	51
37.28	0	button press	n/a	n/a	n/a	n/a	n/a	55
37.64	0	button press	n/a	n/a	n/a	n/a	n/a	55
42.70	4.83	AC	0.72	4	0	3	1	n/a
43.42	0	button press	n/a	n/a	n/a	n/a	n/a	51
45.25	0	button press	n/a	n/a	n/a	n/a	n/a	54
50.29	4.83	AC	0.68	3	0	3	1	n/a
50.98	0	button press	n/a	n/a	n/a	n/a	n/a	51
52.91	0	button press	n/a	n/a	n/a	n/a	n/a	54
53.66	0	button press	n/a	n/a	n/a	n/a	n/a	55
57.95	4.83	CC	0.70	2	0	1	1	n/a
58.65	0	button press	n/a	n/a	n/a	n/a	n/a	51
64.86	4.83	CC	0.73	3	0	1	1	n/a
65.59	0	button press	n/a	n/a	n/a	n/a	n/a	51
73.58	4.83	CC	0.65	4	0	1	1	n/a
74.23	0	button press	n/a	n/a	n/a	n/a	n/a	51
76.81	0	button press	n/a	n/a	n/a	n/a	n/a	54
79.39	4.83	AC	1.35	3	0	3	1	n/a
80.74	0	button press	n/a	n/a	n/a	n/a	n/a	51
81.64	0	button press	n/a	n/a	n/a	n/a	n/a	54
82.27	0	button press	n/a	n/a	n/a	n/a	n/a	54
83.59	0	button press	n/a	n/a	n/a	n/a	n/a	54
86.05	4.83	CC	0.73	4	0	1	1	n/a
86.79	0	button press	n/a	n/a	n/a	n/a	n/a	51
88.28	0	button press	n/a	n/a	n/a	n/a	n/a	55
88.68	0	button press	n/a	n/a	n/a	n/a	n/a	55
89.60	0	button press	n/a	n/a	n/a	n/a	n/a	55
93.49	4.83	AC	0.82	4	0	3	1	n/a
94.31	0	button press	n/a	n/a	n/a	n/a	n/a	51
96.67	0	button press	n/a	n/a	n/a	n/a	n/a	55
99.92	4.83	CC	0.60	3	0	1	1	n/a
100.52	0	button press	n/a	n/a	n/a	n/a	n/a	51
108.36	4.83	CC	0.62	3	0	1	1	n/a
108.98	0	button press	n/a	n/a	n/a	n/a	n/a	51
111.14	0	button press	n/a	n/a	n/a	n/a	n/a	55
112.21	0	button press	n/a	n/a	n/a	n/a	n/a	55
114.24	4.83	AC	1.35	1	0	3	1	n/a
115.59	0	button press	n/a	n/a	n/a	n/a	n/a	51
117.22	0	button press	n/a	n/a	n/a	n/a	n/a	54
117.85	0	button press	n/a	n/a	n/a	n/a	n/a	54
120.63	4.83	AC	0.85	2	0	3	1	n/a
121.48	0	button press	n/a	n/a	n/a	n/a	n/a	51
123.49	0	button press	n/a	n/a	n/a	n/a	n/a	54
128.02	4.83	CC	0.68	3	0	1	1	n/a
128.70	0	button press	n/a	n/a	n/a	n/a	n/a	51
134.61	4.83	CC	0.67	4	0	1	1	n/a
135.28	0	button press	n/a	n/a	n/a	n/a	n/a	51
137.89	0	button press	n/a	n/a	n/a	n/a	n/a	55
138.43	0	button press	n/a	n/a	n/a	n/a	n/a	55
142.94	4.83	CC	0.68	3	0	1	1	n/a
143.62	0	button press	n/a	n/a	n/a	n/a	n/a	51
145.78	0	button press	n/a	n/a	n/a	n/a	n/a	55
146.37	0	button press	n/a	n/a	n/a	n/a	n/a	55
150.00	4.83	AC	1.07	2	0	3	1	n/a
151.06	0	button press	n/a	n/a	n/a	n/a	n/a	51
152.54	0	button press	n/a	n/a	n/a	n/a	n/a	54
152.88	0	button press	n/a	n/a	n/a	n/a	n/a	54
156.57	4.83	CC	0.72	3	0	1	1	n/a
157.29	0	button press	n/a	n/a	n/a	n/a	n/a	51
159.02	0	button press	n/a	n/a	n/a	n/a	n/a	55
163.45	4.83	CC	0.70	3	0	1	1	n/a
164.15	0	button press	n/a	n/a	n/a	n/a	n/a	51
165.99	0	button press	n/a	n/a	n/a	n/a	n/a	55
172.15	4.83	AC	0.88	3	0	3	1	n/a
173.04	0	button press	n/a	n/a	n/a	n/a	n/a	51
174.40	0	button press	n/a	n/a	n/a	n/a	n/a	54
174.80	0	button press	n/a	n/a	n/a	n/a	n/a	54
175.80	0	button press	n/a	n/a	n/a	n/a	n/a	54
179.55	4.83	CC	0.83	3	0	1	1	n/a
180.38	0	button press	n/a	n/a	n/a	n/a	n/a	51
182.19	0	button press	n/a	n/a	n/a	n/a	n/a	55
183.46	0	button press	n/a	n/a	n/a	n/a	n/a	55
185.46	4.83	CC	0.83	3	0	1	1	n/a
186.29	0	button press	n/a	n/a	n/a	n/a	n/a	51
188.39	0	button press	n/a	n/a	n/a	n/a	n/a	55
188.95	0	button press	n/a	n/a	n/a	n/a	n/a	55
192.05	4.83	AA	0.70	3	0	3	3	n/a
192.75	0	button press	n/a	n/a	n/a	n/a	n/a	50
194.43	0	button press	n/a	n/a	n/a	n/a	n/a	55
199.39	4.83	AA	0.63	4	0	3	3	n/a
200.02	0	button press	n/a	n/a	n/a	n/a	n/a	50
201.75	0	button press	n/a	n/a	n/a	n/a	n/a	54
206.71	4.83	CC	0.60	4	0	1	1	n/a
207.31	0	button press	n/a	n/a	n/a	n/a	n/a	51
208.98	0	button press	n/a	n/a	n/a	n/a	n/a	54
209.63	0	button press	n/a	n/a	n/a	n/a	n/a	54
214.36	4.83	CC	0.58	3	0	1	1	n/a
214.94	0	button press	n/a	n/a	n/a	n/a	n/a	51
216.90	0	button press	n/a	n/a	n/a	n/a	n/a	55
217.67	0	button press	n/a	n/a	n/a	n/a	n/a	55
221.93	4.83	CC	0.58	3	0	1	1	n/a
222.51	0	button press	n/a	n/a	n/a	n/a	n/a	51
230.47	4.83	CC	0.63	4	0	1	1	n/a
231.10	0	button press	n/a	n/a	n/a	n/a	n/a	51
232.72	0	button press	n/a	n/a	n/a	n/a	n/a	54
233.20	0	button press	n/a	n/a	n/a	n/a	n/a	54
237.36	4.83	AC	0.65	3	0	3	1	n/a
238.01	0	button press	n/a	n/a	n/a	n/a	n/a	51
239.43	0	button press	n/a	n/a	n/a	n/a	n/a	54
239.78	0	button press	n/a	n/a	n/a	n/a	n/a	54
240.16	0	button press	n/a	n/a	n/a	n/a	n/a	54
245.99	4.83	AC	0.72	3	0	3	1	n/a
246.70	0	button press	n/a	n/a	n/a	n/a	n/a	51
248.27	0	button press	n/a	n/a	n/a	n/a	n/a	54
252.73	4.83	AC	0.67	3	0	3	1	n/a
253.39	0	button press	n/a	n/a	n/a	n/a	n/a	51
255.28	0	button press	n/a	n/a	n/a	n/a	n/a	55
260.64	4.83	AC	0.75	3	0	3	1	n/a
261.39	0	button press	n/a	n/a	n/a	n/a	n/a	51
263.37	0	button press	n/a	n/a	n/a	n/a	n/a	55
264.15	0	button press	n/a	n/a	n/a	n/a	n/a	55
268.83	4.83	AC	0.73	4	0	3	1	n/a
269.56	0	button press	n/a	n/a	n/a	n/a	n/a	51
276.92	4.83	CC	0.68	4	0	1	1	n/a
277.60	0	button press	n/a	n/a	n/a	n/a	n/a	51
283.16	4.83	AC	1.00	3	0	3	1	n/a
284.16	0	button press	n/a	n/a	n/a	n/a	n/a	51
285.36	0	button press	n/a	n/a	n/a	n/a	n/a	54
285.69	0	button press	n/a	n/a	n/a	n/a	n/a	54
286.07	0	button press	n/a	n/a	n/a	n/a	n/a	54
290.05	4.83	AA	1.07	3	0	3	3	n/a
291.12	0	button press	n/a	n/a	n/a	n/a	n/a	50
291.98	0	button press	n/a	n/a	n/a	n/a	n/a	54
292.32	0	button press	n/a	n/a	n/a	n/a	n/a	54
292.62	0	button press	n/a	n/a	n/a	n/a	n/a	54
295.81	4.83	CC	0.53	3	0	1	1	n/a
296.35	0	button press	n/a	n/a	n/a	n/a	n/a	51
297.96	0	button press	n/a	n/a	n/a	n/a	n/a	54
298.56	0	button press	n/a	n/a	n/a	n/a	n/a	54
301.66	4.83	AA	0.98	3	0	3	3	n/a
302.64	0	button press	n/a	n/a	n/a	n/a	n/a	50
308.66	4.83	AA	1.08	2	0	3	3	n/a
309.75	0	button press	n/a	n/a	n/a	n/a	n/a	50
310.85	0	button press	n/a	n/a	n/a	n/a	n/a	54
325.58	4.83	NN	0.87	3	1	0	0	n/a
326.44	0	button press	n/a	n/a	n/a	n/a	n/a	51
328.13	0	button press	n/a	n/a	n/a	n/a	n/a	55
329.04	0	button press	n/a	n/a	n/a	n/a	n/a	55
334.07	4.83	NN	0.68	3	1	0	0	n/a
334.75	0	button press	n/a	n/a	n/a	n/a	n/a	51
335.75	0	button press	n/a	n/a	n/a	n/a	n/a	51
336.43	0	button press	n/a	n/a	n/a	n/a	n/a	54
342.54	4.83	NN	1.07	3	1	0	0	n/a
343.61	0	button press	n/a	n/a	n/a	n/a	n/a	51
345.46	0	button press	n/a	n/a	n/a	n/a	n/a	55
350.55	4.83	YY	0.95	3	1	3	1	n/a
351.50	0	button press	n/a	n/a	n/a	n/a	n/a	50
356.23	4.83	YY	1.00	3	1	1	1	n/a
357.23	0	button press	n/a	n/a	n/a	n/a	n/a	50
358.64	0	button press	n/a	n/a	n/a	n/a	n/a	54
359.14	0	button press	n/a	n/a	n/a	n/a	n/a	54
359.71	0	button press	n/a	n/a	n/a	n/a	n/a	54
363.39	4.83	YY	0.95	3	1	1	1	n/a
364.33	0	button press	n/a	n/a	n/a	n/a	n/a	50
365.88	0	button press	n/a	n/a	n/a	n/a	n/a	54
367.10	0	button press	n/a	n/a	n/a	n/a	n/a	54
369.23	4.83	NY	1.17	1	1	0	1	n/a
370.39	0	button press	n/a	n/a	n/a	n/a	n/a	50
375.29	4.83	YY	0.85	2	1	3	1	n/a
376.14	0	button press	n/a	n/a	n/a	n/a	n/a	50
381.30	4.83	NY	0.88	2	1	0	1	n/a
382.18	0	button press	n/a	n/a	n/a	n/a	n/a	50
383.38	0	button press	n/a	n/a	n/a	n/a	n/a	54
383.69	0	button press	n/a	n/a	n/a	n/a	n/a	54
383.99	0	button press	n/a	n/a	n/a	n/a	n/a	54
384.24	0	button press	n/a	n/a	n/a	n/a	n/a	54
387.44	4.83	NN	0.92	3	1	0	0	n/a
388.36	0	button press	n/a	n/a	n/a	n/a	n/a	51
394.27	4.83	YY	0.65	5	1	3	1	n/a
394.92	0	button press	n/a	n/a	n/a	n/a	n/a	50
396.66	0	button press	n/a	n/a	n/a	n/a	n/a	55
397.38	0	button press	n/a	n/a	n/a	n/a	n/a	55
402.59	4.83	NN	0.82	4	1	0	0	n/a
403.41	0	button press	n/a	n/a	n/a	n/a	n/a	51
405.35	0	button press	n/a	n/a	n/a	n/a	n/a	54
408.98	4.83	YY	0.82	3	1	3	1	n/a
409.80	0	button press	n/a	n/a	n/a	n/a	n/a	50
411.40	0	button press	n/a	n/a	n/a	n/a	n/a	55
415.33	4.83	YY	0.77	4	1	1	1	n/a
416.09	0	button press	n/a	n/a	n/a	n/a	n/a	50
417.59	0	button press	n/a	n/a	n/a	n/a	n/a	54
418.06	0	button press	n/a	n/a	n/a	n/a	n/a	54
424.26	4.83	NN	0.87	3	1	0	0	n/a
425.13	0	button press	n/a	n/a	n/a	n/a	n/a	51
427.73	0	button press	n/a	n/a	n/a	n/a	n/a	54
430.34	4.83	YY	0.75	3	1	1	1	n/a
431.09	0	button press	n/a	n/a	n/a	n/a	n/a	50
433.02	0	button press	n/a	n/a	n/a	n/a	n/a	55
438.65	4.83	YY	0.77	3	1	1	1	n/a
439.41	0	button press	n/a	n/a	n/a	n/a	n/a	50
440.71	0	button press	n/a	n/a	n/a	n/a	n/a	54
441.15	0	button press	n/a	n/a	n/a	n/a	n/a	54
442.69	0	button press	n/a	n/a	n/a	n/a	n/a	54
446.59	4.83	NN	0.67	2	1	0	0	n/a
447.26	0	button press	n/a	n/a	n/a	n/a	n/a	51
449.95	0	button press	n/a	n/a	n/a	n/a	n/a	55
450.75	0	button press	n/a	n/a	n/a	n/a	n/a	55
452.57	4.83	YY	0.72	3	1	3	1	n/a
453.28	0	button press	n/a	n/a	n/a	n/a	n/a	50
454.35	0	button press	n/a	n/a	n/a	n/a	n/a	54
454.66	0	button press	n/a	n/a	n/a	n/a	n/a	54
455.05	0	button press	n/a	n/a	n/a	n/a	n/a	54
461.37	4.83	NN	0.73	2	1	0	0	n/a
462.10	0	button press	n/a	n/a	n/a	n/a	n/a	51
467.52	4.83	NN	0.68	3	1	0	0	n/a
468.20	0	button press	n/a	n/a	n/a	n/a	n/a	51
473.34	4.83	NN	0.80	3	1	0	0	n/a
474.14	0	button press	n/a	n/a	n/a	n/a	n/a	51
481.80	4.83	NY	1.25	2	1	0	1	n/a
483.05	0	button press	n/a	n/a	n/a	n/a	n/a	50
484.35	0	button press	n/a	n/a	n/a	n/a	n/a	54
487.44	4.83	YN	0.90	3	1	1	0	n/a
488.34	0	button press	n/a	n/a	n/a	n/a	n/a	51
495.47	4.83	YN	1.05	3	1	1	0	n/a
496.51	0	button press	n/a	n/a	n/a	n/a	n/a	51
499.18	0	button press	n/a	n/a	n/a	n/a	n/a	54
502.64	4.83	NN	0.73	4	1	0	0	n/a
503.37	0	button press	n/a	n/a	n/a	n/a	n/a	51
504.89	0	button press	n/a	n/a	n/a	n/a	n/a	54
505.22	0	button press	n/a	n/a	n/a	n/a	n/a	54
510.38	4.83	YY	0.75	3	1	1	1	n/a
511.13	0	button press	n/a	n/a	n/a	n/a	n/a	50
513.41	0	button press	n/a	n/a	n/a	n/a	n/a	55
518.26	4.83	NN	1.10	4	1	0	0	n/a
519.36	0	button press	n/a	n/a	n/a	n/a	n/a	51
526.33	4.83	YY	0.75	4	1	3	1	n/a
527.08	0	button press	n/a	n/a	n/a	n/a	n/a	50
528.43	0	button press	n/a	n/a	n/a	n/a	n/a	54
530.64	0	button press	n/a	n/a	n/a	n/a	n/a	54
534.59	4.83	NN	0.72	3	1	0	0	n/a
535.30	0	button press	n/a	n/a	n/a	n/a	n/a	51
538.67	0	button press	n/a	n/a	n/a	n/a	n/a	55
542.28	4.83	NN	0.95	4	1	0	0	n/a
543.23	0	button press	n/a	n/a	n/a	n/a	n/a	51
544.59	0	button press	n/a	n/a	n/a	n/a	n/a	55
551.02	4.83	YN	1.18	2	1	3	0	n/a
552.20	0	button press	n/a	n/a	n/a	n/a	n/a	51
559.71	4.83	NN	0.83	4	1	0	0	n/a
560.54	0	button press	n/a	n/a	n/a	n/a	n/a	51
562.34	0	button press	n/a	n/a	n/a	n/a	n/a	54
562.69	0	button press	n/a	n/a	n/a	n/a	n/a	54
567.10	4.83	YN	1.03	2	1	3	0	n/a
568.13	0	button press	n/a	n/a	n/a	n/a	n/a	51
569.26	0	button press	n/a	n/a	n/a	n/a	n/a	54
569.71	0	button press	n/a	n/a	n/a	n/a	n/a	54
570.08	0	button press	n/a	n/a	n/a	n/a	n/a	54
573.34	4.83	YY	0.88	3	1	3	1	n/a
574.23	0	button press	n/a	n/a	n/a	n/a	n/a	50
580.32	4.83	NN	0.88	3	1	0	0	n/a
581.20	0	button press	n/a	n/a	n/a	n/a	n/a	51
582.60	0	button press	n/a	n/a	n/a	n/a	n/a	54
588.23	4.83	YY	0.83	5	1	1	1	n/a
589.06	0	button press	n/a	n/a	n/a	n/a	n/a	50
594.74	4.83	NN	0.85	3	1	0	0	n/a
595.58	0	button press	n/a	n/a	n/a	n/a	n/a	51
602.74	4.83	YY	1.02	3	1	3	1	n/a
603.76	0	button press	n/a	n/a	n/a	n/a	n/a	50
610.50	4.83	YY	1.30	2	1	1	1	n/a
611.80	0	button press	n/a	n/a	n/a	n/a	n/a	50
