onset	duration	trial_type	response_time	confidence	detection	stimulus	response	key_id
26.86	4.83	YN	0.83	4	1	3	0	n/a
27.69	0	button press	n/a	n/a	n/a	n/a	n/a	50
28.92	0	button press	n/a	n/a	n/a	n/a	n/a	55
29.42	0	button press	n/a	n/a	n/a	n/a	n/a	54
33.71	4.83	NN	0.67	3	1	0	0	n/a
34.38	0	button press	n/a	n/a	n/a	n/a	n/a	50
35.80	0	button press	n/a	n/a	n/a	n/a	n/a	54
36.63	0	button press	n/a	n/a	n/a	n/a	n/a	54
37.89	0	button press	n/a	n/a	n/a	n/a	n/a	55
40.07	4.83	YN	1.13	3	1	1	0	n/a
41.20	0	button press	n/a	n/a	n/a	n/a	n/a	50
42.42	0	button press	n/a	n/a	n/a	n/a	n/a	55
48.48	4.83	NN	0.75	5	1	0	0	n/a
49.23	0	button press	n/a	n/a	n/a	n/a	n/a	50
50.74	0	button press	n/a	n/a	n/a	n/a	n/a	54
51.19	0	button press	n/a	n/a	n/a	n/a	n/a	54
51.93	0	button press	n/a	n/a	n/a	n/a	n/a	55
56.82	4.83	YY	1.00	3	1	1	1	n/a
57.82	0	button press	n/a	n/a	n/a	n/a	n/a	51
64.61	4.83	NN	1.10	3	1	0	0	n/a
65.71	0	button press	n/a	n/a	n/a	n/a	n/a	50
67.11	0	button press	n/a	n/a	n/a	n/a	n/a	54
72.29	4.83	NN	0.77	2	1	0	0	n/a
73.05	0	button press	n/a	n/a	n/a	n/a	n/a	50
74.57	0	button press	n/a	n/a	n/a	n/a	n/a	54
74.98	0	button press	n/a	n/a	n/a	n/a	n/a	54
79.73	4.83	NN	1.07	3	1	0	0	n/a
80.79	0	button press	n/a	n/a	n/a	n/a	n/a	50
83.52	0	button press	n/a	n/a	n/a	n/a	n/a	55
88.45	4.83	YY	0.80	4	1	3	1	n/a
89.25	0	button press	n/a	n/a	n/a	n/a	n/a	51
90.53	0	button press	n/a	n/a	n/a	n/a	n/a	54
94.08	4.83	YY	1.25	3	1	1	1	n/a
95.33	0	button press	n/a	n/a	n/a	n/a	n/a	51
101.75	4.83	NN	1.32	2	1	0	0	n/a
103.07	0	button press	n/a	n/a	n/a	n/a	n/a	50
103.80	0	button press	n/a	n/a	n/a	n/a	n/a	54
104.18	0	button press	n/a	n/a	n/a	n/a	n/a	54
108.48	4.83	NN	1.08	2	1	0	0	n/a
109.56	0	button press	n/a	n/a	n/a	n/a	n/a	50
111.27	0	button press	n/a	n/a	n/a	n/a	n/a	55
114.92	4.83	YY	1.07	3	1	1	1	n/a
115.99	0	button press	n/a	n/a	n/a	n/a	n/a	51
116.88	0	button press	n/a	n/a	n/a	n/a	n/a	54
117.25	0	button press	n/a	n/a	n/a	n/a	n/a	54
117.95	0	button press	n/a	n/a	n/a	n/a	n/a	55
123.06	4.83	NN	1.27	3	1	0	0	n/a
124.33	0	button press	n/a	n/a	n/a	n/a	n/a	50
130.90	4.83	YY	0.78	5	1	3	1	n/a
131.68	0	button press	n/a	n/a	n/a	n/a	n/a	51
132.83	0	button press	n/a	n/a	n/a	n/a	n/a	55
133.87	0	button press	n/a	n/a	n/a	n/a	n/a	55
138.46	4.83	YY	0.88	4	1	3	1	n/a
139.34	0	button press	n/a	n/a	n/a	n/a	n/a	51
146.92	4.83	YY	0.68	5	1	3	1	n/a
147.60	0	button press	n/a	n/a	n/a	n/a	n/a	51
149.03	0	button press	n/a	n/a	n/a	n/a	n/a	55
149.46	0	button press	n/a	n/a	n/a	n/a	n/a	55
154.89	4.83	NY	1.23	3	1	0	1	n/a
156.12	0	button press	n/a	n/a	n/a	n/a	n/a	51
157.29	0	button press	n/a	n/a	n/a	n/a	n/a	54
157.97	0	button press	n/a	n/a	n/a	n/a	n/a	54
158.77	0	button press	n/a	n/a	n/a	n/a	n/a	55
163.70	4.83	YY	1.35	4	1	3	1	n/a
165.05	0	button press	n/a	n/a	n/a	n/a	n/a	51
165.98	0	button press	n/a	n/a	n/a	n/a	n/a	54
169.62	4.83	YY	1.18	2	1	1	1	n/a
170.81	0	button press	n/a	n/a	n/a	n/a	n/a	51
171.52	0	button press	n/a	n/a	n/a	n/a	n/a	54
172.00	0	button press	n/a	n/a	n/a	n/a	n/a	54
177.71	4.83	NN	0.92	2	1	0	0	n/a
178.63	0	button press	n/a	n/a	n/a	n/a	n/a	50
179.68	0	button press	n/a	n/a	n/a	n/a	n/a	54
180.01	0	button press	n/a	n/a	n/a	n/a	n/a	54
180.63	0	button press	n/a	n/a	n/a	n/a	n/a	54
181.08	0	button press	n/a	n/a	n/a	n/a	n/a	54
184.36	4.83	YY	0.93	5	1	3	1	n/a
185.29	0	button press	n/a	n/a	n/a	n/a	n/a	51
186.44	0	button press	n/a	n/a	n/a	n/a	n/a	55
186.80	0	button press	n/a	n/a	n/a	n/a	n/a	55
187.59	0	button press	n/a	n/a	n/a	n/a	n/a	55
191.02	4.83	NN	0.98	3	1	0	0	n/a
192.00	0	button press	n/a	n/a	n/a	n/a	n/a	50
193.11	0	button press	n/a	n/a	n/a	n/a	n/a	54
193.56	0	button press	n/a	n/a	n/a	n/a	n/a	54
193.95	0	button press	n/a	n/a	n/a	n/a	n/a	54
199.64	4.83	NN	0.88	3	1	0	0	n/a
200.52	0	button press	n/a	n/a	n/a	n/a	n/a	50
202.00	0	button press	n/a	n/a	n/a	n/a	n/a	55
202.44	0	button press	n/a	n/a	n/a	n/a	n/a	55
205.45	4.83	YY	0.87	2	1	1	1	n/a
206.32	0	button press	n/a	n/a	n/a	n/a	n/a	51
207.58	0	button press	n/a	n/a	n/a	n/a	n/a	54
208.78	0	button press	n/a	n/a	n/a	n/a	n/a	54
211.59	4.83	YY	0.75	3	1	3	1	n/a
212.34	0	button press	n/a	n/a	n/a	n/a	n/a	51
213.94	0	button press	n/a	n/a	n/a	n/a	n/a	54
214.76	0	button press	n/a	n/a	n/a	n/a	n/a	54
217.54	4.83	YY	0.65	3	1	1	1	n/a
218.18	0	button press	n/a	n/a	n/a	n/a	n/a	51
219.92	0	button press	n/a	n/a	n/a	n/a	n/a	55
223.99	4.83	YY	0.98	3	1	1	1	n/a
224.98	0	button press	n/a	n/a	n/a	n/a	n/a	51
226.41	0	button press	n/a	n/a	n/a	n/a	n/a	55
231.75	4.83	NY	1.32	2	1	0	1	n/a
233.07	0	button press	n/a	n/a	n/a	n/a	n/a	51
233.72	0	button press	n/a	n/a	n/a	n/a	n/a	54
234.07	0	button press	n/a	n/a	n/a	n/a	n/a	54
238.05	4.83	NN	0.88	4	1	0	0	n/a
238.93	0	button press	n/a	n/a	n/a	n/a	n/a	50
240.23	0	button press	n/a	n/a	n/a	n/a	n/a	55
240.59	0	button press	n/a	n/a	n/a	n/a	n/a	55
241.84	0	button press	n/a	n/a	n/a	n/a	n/a	55
245.70	4.83	YN	0.95	2	1	3	0	n/a
246.65	0	button press	n/a	n/a	n/a	n/a	n/a	50
248.35	0	button press	n/a	n/a	n/a	n/a	n/a	54
254.11	4.83	NN	0.92	3	1	0	0	n/a
255.03	0	button press	n/a	n/a	n/a	n/a	n/a	50
256.42	0	button press	n/a	n/a	n/a	n/a	n/a	55
262.63	4.83	NN	0.97	3	1	0	0	n/a
263.60	0	button press	n/a	n/a	n/a	n/a	n/a	50
271.11	4.83	YY	0.87	2	1	3	1	n/a
271.97	0	button press	n/a	n/a	n/a	n/a	n/a	51
273.32	0	button press	n/a	n/a	n/a	n/a	n/a	54
273.60	0	button press	n/a	n/a	n/a	n/a	n/a	54
274.07	0	button press	n/a	n/a	n/a	n/a	n/a	54
274.42	0	button press	n/a	n/a	n/a	n/a	n/a	54
276.90	4.83	NN	1.17	1	1	0	0	n/a
278.07	0	button press	n/a	n/a	n/a	n/a	n/a	50
278.95	0	button press	n/a	n/a	n/a	n/a	n/a	54
279.21	0	button press	n/a	n/a	n/a	n/a	n/a	54
279.45	0	button press	n/a	n/a	n/a	n/a	n/a	54
279.76	0	button press	n/a	n/a	n/a	n/a	n/a	54
280.08	0	button press	n/a	n/a	n/a	n/a	n/a	54
283.56	4.83	NY	1.12	1	1	0	1	n/a
284.68	0	button press	n/a	n/a	n/a	n/a	n/a	51
285.61	0	button press	n/a	n/a	n/a	n/a	n/a	54
285.99	0	button press	n/a	n/a	n/a	n/a	n/a	54
286.26	0	button press	n/a	n/a	n/a	n/a	n/a	54
286.54	0	button press	n/a	n/a	n/a	n/a	n/a	54
287.11	0	button press	n/a	n/a	n/a	n/a	n/a	54
290.22	4.83	YY	0.65	5	1	1	1	n/a
290.87	0	button press	n/a	n/a	n/a	n/a	n/a	51
299.11	4.83	NN	0.83	2	1	0	0	n/a
299.94	0	button press	n/a	n/a	n/a	n/a	n/a	50
301.16	0	button press	n/a	n/a	n/a	n/a	n/a	54
301.79	0	button press	n/a	n/a	n/a	n/a	n/a	54
302.49	0	button press	n/a	n/a	n/a	n/a	n/a	54
303.30	0	button press	n/a	n/a	n/a	n/a	n/a	55
307.02	4.83	YY	0.68	5	1	1	1	n/a
307.70	0	button press	n/a	n/a	n/a	n/a	n/a	51
309.20	0	button press	n/a	n/a	n/a	n/a	n/a	55
309.50	0	button press	n/a	n/a	n/a	n/a	n/a	55
310.16	0	button press	n/a	n/a	n/a	n/a	n/a	55
314.91	4.83	NY	0.97	2	1	0	1	n/a
315.87	0	button press	n/a	n/a	n/a	n/a	n/a	51
316.80	0	button press	n/a	n/a	n/a	n/a	n/a	54
317.10	0	button press	n/a	n/a	n/a	n/a	n/a	54
317.59	0	button press	n/a	n/a	n/a	n/a	n/a	54
317.85	0	button press	n/a	n/a	n/a	n/a	n/a	54
333.17	4.83	CC	0.80	5	0	1	1	n/a
333.97	0	button press	n/a	n/a	n/a	n/a	n/a	50
339.55	4.83	CC	0.82	4	0	1	1	n/a
340.36	0	button press	n/a	n/a	n/a	n/a	n/a	50
341.44	0	button press	n/a	n/a	n/a	n/a	n/a	54
342.48	0	button press	n/a	n/a	n/a	n/a	n/a	54
343.39	0	button press	n/a	n/a	n/a	n/a	n/a	55
346.55	4.83	CC	0.68	3	0	1	1	n/a
347.24	0	button press	n/a	n/a	n/a	n/a	n/a	50
348.98	0	button press	n/a	n/a	n/a	n/a	n/a	54
355.06	4.83	AC	1.00	3	0	3	1	n/a
356.06	0	button press	n/a	n/a	n/a	n/a	n/a	50
357.32	0	button press	n/a	n/a	n/a	n/a	n/a	55
357.76	0	button press	n/a	n/a	n/a	n/a	n/a	55
362.95	4.83	CC	1.02	3	0	1	1	n/a
363.97	0	button press	n/a	n/a	n/a	n/a	n/a	50
371.74	4.83	CC	0.75	3	0	1	1	n/a
372.49	0	button press	n/a	n/a	n/a	n/a	n/a	50
379.25	4.83	CC	0.92	2	0	1	1	n/a
380.17	0	button press	n/a	n/a	n/a	n/a	n/a	50
387.36	4.83	AA	0.80	3	0	3	3	n/a
388.16	0	button press	n/a	n/a	n/a	n/a	n/a	51
389.37	0	button press	n/a	n/a	n/a	n/a	n/a	54
389.70	0	button press	n/a	n/a	n/a	n/a	n/a	54
394.77	4.83	CC	1.28	1	0	1	1	n/a
396.05	0	button press	n/a	n/a	n/a	n/a	n/a	50
396.96	0	button press	n/a	n/a	n/a	n/a	n/a	54
397.65	0	button press	n/a	n/a	n/a	n/a	n/a	54
398.26	0	button press	n/a	n/a	n/a	n/a	n/a	54
401.94	4.83	CA	0.65	2	0	1	3	n/a
402.59	0	button press	n/a	n/a	n/a	n/a	n/a	51
404.14	0	button press	n/a	n/a	n/a	n/a	n/a	55
410.28	4.83	CC	0.80	3	0	1	1	n/a
411.08	0	button press	n/a	n/a	n/a	n/a	n/a	50
417.09	4.83	CC	0.75	4	0	1	1	n/a
417.84	0	button press	n/a	n/a	n/a	n/a	n/a	50
419.29	0	button press	n/a	n/a	n/a	n/a	n/a	55
419.84	0	button press	n/a	n/a	n/a	n/a	n/a	55
420.42	0	button press	n/a	n/a	n/a	n/a	n/a	55
423.00	4.83	CC	0.82	3	0	1	1	n/a
423.81	0	button press	n/a	n/a	n/a	n/a	n/a	50
424.98	0	button press	n/a	n/a	n/a	n/a	n/a	54
425.53	0	button press	n/a	n/a	n/a	n/a	n/a	54
426.16	0	button press	n/a	n/a	n/a	n/a	n/a	54
431.19	4.83	AA	0.70	4	0	3	3	n/a
431.89	0	button press	n/a	n/a	n/a	n/a	n/a	51
433.54	0	button press	n/a	n/a	n/a	n/a	n/a	55
433.85	0	button press	n/a	n/a	n/a	n/a	n/a	55
435.09	0	button press	n/a	n/a	n/a	n/a	n/a	55
437.70	4.83	AA	0.58	5	0	3	3	n/a
438.28	0	button press	n/a	n/a	n/a	n/a	n/a	51
443.36	4.83	CA	1.10	3	0	1	3	n/a
444.46	0	button press	n/a	n/a	n/a	n/a	n/a	51
449.19	4.83	AC	1.13	3	0	3	1	n/a
450.32	0	button press	n/a	n/a	n/a	n/a	n/a	50
451.35	0	button press	n/a	n/a	n/a	n/a	n/a	55
451.72	0	button press	n/a	n/a	n/a	n/a	n/a	55
456.44	4.83	AC	0.77	3	0	3	1	n/a
457.21	0	button press	n/a	n/a	n/a	n/a	n/a	50
458.66	0	button press	n/a	n/a	n/a	n/a	n/a	55
463.99	4.83	AA	0.85	3	0	3	3	n/a
464.83	0	button press	n/a	n/a	n/a	n/a	n/a	51
466.85	0	button press	n/a	n/a	n/a	n/a	n/a	55
467.45	0	button press	n/a	n/a	n/a	n/a	n/a	55
470.16	4.83	CC	0.98	1	0	1	1	n/a
471.14	0	button press	n/a	n/a	n/a	n/a	n/a	50
472.54	0	button press	n/a	n/a	n/a	n/a	n/a	54
477.75	4.83	AA	0.70	3	0	3	3	n/a
478.45	0	button press	n/a	n/a	n/a	n/a	n/a	51
479.98	0	button press	n/a	n/a	n/a	n/a	n/a	54
480.62	0	button press	n/a	n/a	n/a	n/a	n/a	55
481.77	0	button press	n/a	n/a	n/a	n/a	n/a	54
486.24	4.83	CA	1.15	2	0	1	3	n/a
487.39	0	button press	n/a	n/a	n/a	n/a	n/a	51
488.12	0	button press	n/a	n/a	n/a	n/a	n/a	54
492.79	4.83	AA	0.73	1	0	3	3	n/a
493.52	0	button press	n/a	n/a	n/a	n/a	n/a	51
498.73	4.83	AA	0.83	1	0	3	3	n/a
499.56	0	button press	n/a	n/a	n/a	n/a	n/a	51
507.12	4.83	AA	0.68	2	0	3	3	n/a
507.80	0	button press	n/a	n/a	n/a	n/a	n/a	51
514.89	4.83	AA	0.73	2	0	3	3	n/a
515.63	0	button press	n/a	n/a	n/a	n/a	n/a	51
518.34	0	button press	n/a	n/a	n/a	n/a	n/a	54
520.70	4.83	CA	0.82	2	0	1	3	n/a
521.52	0	button press	n/a	n/a	n/a	n/a	n/a	51
523.55	0	button press	n/a	n/a	n/a	n/a	n/a	55
527.16	4.83	AA	1.07	3	0	3	3	n/a
528.23	0	button press	n/a	n/a	n/a	n/a	n/a	51
529.86	0	button press	n/a	n/a	n/a	n/a	n/a	55
533.31	4.83	CA	0.88	3	0	1	3	n/a
534.19	0	button press	n/a	n/a	n/a	n/a	n/a	51
541.28	4.83	CA	1.28	4	0	1	3	n/a
542.56	0	button press	n/a	n/a	n/a	n/a	n/a	51
544.16	0	button press	n/a	n/a	n/a	n/a	n/a	55
544.96	0	button press	n/a	n/a	n/a	n/a	n/a	55
545.41	0	button press	n/a	n/a	n/a	n/a	n/a	54
547.17	4.83	AA	1.18	1	0	3	3	n/a
548.36	0	button press	n/a	n/a	n/a	n/a	n/a	51
549.42	0	button press	n/a	n/a	n/a	n/a	n/a	54
549.85	0	button press	n/a	n/a	n/a	n/a	n/a	54
553.50	4.83	CA	1.33	2	0	1	3	n/a
554.83	0	button press	n/a	n/a	n/a	n/a	n/a	51
555.61	0	button press	n/a	n/a	n/a	n/a	n/a	54
556.06	0	button press	n/a	n/a	n/a	n/a	n/a	54
562.12	4.83	AA	0.92	3	0	3	3	n/a
563.04	0	button press	n/a	n/a	n/a	n/a	n/a	51
564.64	0	button press	n/a	n/a	n/a	n/a	n/a	55
565.19	0	button press	n/a	n/a	n/a	n/a	n/a	55
569.13	4.83	CC	0.98	3	0	1	1	n/a
570.11	0	button press	n/a	n/a	n/a	n/a	n/a	50
571.50	0	button press	n/a	n/a	n/a	n/a	n/a	55
572.03	0	button press	n/a	n/a	n/a	n/a	n/a	55
575.62	4.83	AA	0.93	3	0	3	3	n/a
576.56	0	button press	n/a	n/a	n/a	n/a	n/a	51
577.82	0	button press	n/a	n/a	n/a	n/a	n/a	54
578.19	0	button press	n/a	n/a	n/a	n/a	n/a	54
578.77	0	button press	n/a	n/a	n/a	n/a	n/a	54
579.45	0	button press	n/a	n/a	n/a	n/a	n/a	55
582.77	4.83	CA	1.05	2	0	1	3	n/a
583.81	0	button press	n/a	n/a	n/a	n/a	n/a	51
589.36	4.83	AA	0.95	3	0	3	3	n/a
590.31	0	button press	n/a	n/a	n/a	n/a	n/a	51
591.72	0	button press	n/a	n/a	n/a	n/a	n/a	55
597.27	4.83	AA	0.77	3	0	3	3	n/a
598.03	0	button press	n/a	n/a	n/a	n/a	n/a	51
599.86	0	button press	n/a	n/a	n/a	n/a	n/a	55
600.56	0	button press	n/a	n/a	n/a	n/a	n/a	55
601.48	0	button press	n/a	n/a	n/a	n/a	n/a	54
605.42	4.83	AA	0.83	3	0	3	3	n/a
606.26	0	button press	n/a	n/a	n/a	n/a	n/a	51
607.57	0	button press	n/a	n/a	n/a	n/a	n/a	54
607.95	0	button press	n/a	n/a	n/a	n/a	n/a	54
608.35	0	button press	n/a	n/a	n/a	n/a	n/a	54
612.55	4.83	AA	0.75	3	0	3	3	n/a
613.30	0	button press	n/a	n/a	n/a	n/a	n/a	51
614.50	0	button press	n/a	n/a	n/a	n/a	n/a	54
614.83	0	button press	n/a	n/a	n/a	n/a	n/a	54
615.20	0	button press	n/a	n/a	n/a	n/a	n/a	54
