onset	duration	trial_type	response_time	confidence	detection	stimulus	response	key_id
26.83	4.83	AA	0.69	1	0	3	3	n/a
27.52	0	button press	n/a	n/a	n/a	n/a	n/a	51
28.65	0	button press	n/a	n/a	n/a	n/a	n/a	55
28.84	0	button press	n/a	n/a	n/a	n/a	n/a	55
29.00	0	button press	n/a	n/a	n/a	n/a	n/a	55
29.15	0	button press	n/a	n/a	n/a	n/a	n/a	55
29.28	0	button press	n/a	n/a	n/a	n/a	n/a	55
33.01	4.83	AA	0.65	6	0	3	3	n/a
33.66	0	button press	n/a	n/a	n/a	n/a	n/a	51
34.70	0	button press	n/a	n/a	n/a	n/a	n/a	54
34.88	0	button press	n/a	n/a	n/a	n/a	n/a	54
35.05	0	button press	n/a	n/a	n/a	n/a	n/a	54
39.67	4.83	CA	0.60	1	0	1	3	n/a
40.27	0	button press	n/a	n/a	n/a	n/a	n/a	51
41.10	0	button press	n/a	n/a	n/a	n/a	n/a	55
41.29	0	button press	n/a	n/a	n/a	n/a	n/a	55
41.47	0	button press	n/a	n/a	n/a	n/a	n/a	55
41.65	0	button press	n/a	n/a	n/a	n/a	n/a	55
46.36	4.83	AA	0.68	5	0	3	3	n/a
47.05	0	button press	n/a	n/a	n/a	n/a	n/a	51
48.00	0	button press	n/a	n/a	n/a	n/a	n/a	54
48.20	0	button press	n/a	n/a	n/a	n/a	n/a	54
52.21	4.83	AA	0.68	5	0	3	3	n/a
52.89	0	button press	n/a	n/a	n/a	n/a	n/a	51
54.29	0	button press	n/a	n/a	n/a	n/a	n/a	54
54.51	0	button press	n/a	n/a	n/a	n/a	n/a	54
54.71	0	button press	n/a	n/a	n/a	n/a	n/a	54
55.19	0	button press	n/a	n/a	n/a	n/a	n/a	54
59.27	4.83	CC	0.72	1	0	1	1	n/a
59.98	0	button press	n/a	n/a	n/a	n/a	n/a	50
60.85	0	button press	n/a	n/a	n/a	n/a	n/a	55
61.07	0	button press	n/a	n/a	n/a	n/a	n/a	55
66.51	4.83	AA	0.67	6	0	3	3	n/a
67.17	0	button press	n/a	n/a	n/a	n/a	n/a	51
67.94	0	button press	n/a	n/a	n/a	n/a	n/a	54
68.16	0	button press	n/a	n/a	n/a	n/a	n/a	54
68.37	0	button press	n/a	n/a	n/a	n/a	n/a	54
68.74	0	button press	n/a	n/a	n/a	n/a	n/a	54
72.78	4.83	AC	0.92	1	0	3	1	n/a
73.70	0	button press	n/a	n/a	n/a	n/a	n/a	50
74.60	0	button press	n/a	n/a	n/a	n/a	n/a	55
74.80	0	button press	n/a	n/a	n/a	n/a	n/a	55
80.99	4.83	AA	0.67	6	0	3	3	n/a
81.66	0	button press	n/a	n/a	n/a	n/a	n/a	51
82.92	0	button press	n/a	n/a	n/a	n/a	n/a	54
83.16	0	button press	n/a	n/a	n/a	n/a	n/a	54
83.34	0	button press	n/a	n/a	n/a	n/a	n/a	54
83.56	0	button press	n/a	n/a	n/a	n/a	n/a	54
84.04	0	button press	n/a	n/a	n/a	n/a	n/a	54
87.40	4.83	AA	0.65	6	0	3	3	n/a
88.05	0	button press	n/a	n/a	n/a	n/a	n/a	51
89.22	0	button press	n/a	n/a	n/a	n/a	n/a	54
89.42	0	button press	n/a	n/a	n/a	n/a	n/a	54
89.62	0	button press	n/a	n/a	n/a	n/a	n/a	54
89.98	0	button press	n/a	n/a	n/a	n/a	n/a	54
90.23	0	button press	n/a	n/a	n/a	n/a	n/a	54
95.61	4.83	AA	0.58	6	0	3	3	n/a
96.19	0	button press	n/a	n/a	n/a	n/a	n/a	51
97.04	0	button press	n/a	n/a	n/a	n/a	n/a	54
97.24	0	button press	n/a	n/a	n/a	n/a	n/a	54
97.42	0	button press	n/a	n/a	n/a	n/a	n/a	54
104.50	4.83	CA	0.50	1	0	1	3	n/a
105.00	0	button press	n/a	n/a	n/a	n/a	n/a	51
105.90	0	button press	n/a	n/a	n/a	n/a	n/a	55
106.08	0	button press	n/a	n/a	n/a	n/a	n/a	55
106.25	0	button press	n/a	n/a	n/a	n/a	n/a	55
106.45	0	button press	n/a	n/a	n/a	n/a	n/a	55
110.19	4.83	AA	0.52	6	0	3	3	n/a
110.71	0	button press	n/a	n/a	n/a	n/a	n/a	51
111.57	0	button press	n/a	n/a	n/a	n/a	n/a	54
111.76	0	button press	n/a	n/a	n/a	n/a	n/a	54
111.92	0	button press	n/a	n/a	n/a	n/a	n/a	54
112.07	0	button press	n/a	n/a	n/a	n/a	n/a	54
117.52	4.83	CA	0.58	1	0	1	3	n/a
118.10	0	button press	n/a	n/a	n/a	n/a	n/a	51
119.30	0	button press	n/a	n/a	n/a	n/a	n/a	55
119.50	0	button press	n/a	n/a	n/a	n/a	n/a	55
123.69	4.83	AA	0.65	1	0	3	3	n/a
124.34	0	button press	n/a	n/a	n/a	n/a	n/a	51
125.77	0	button press	n/a	n/a	n/a	n/a	n/a	55
126.19	0	button press	n/a	n/a	n/a	n/a	n/a	55
126.41	0	button press	n/a	n/a	n/a	n/a	n/a	55
126.59	0	button press	n/a	n/a	n/a	n/a	n/a	55
130.90	4.83	AA	0.60	6	0	3	3	n/a
131.50	0	button press	n/a	n/a	n/a	n/a	n/a	51
132.48	0	button press	n/a	n/a	n/a	n/a	n/a	54
132.73	0	button press	n/a	n/a	n/a	n/a	n/a	54
132.88	0	button press	n/a	n/a	n/a	n/a	n/a	54
136.68	4.83	AA	0.68	1	0	3	3	n/a
137.36	0	button press	n/a	n/a	n/a	n/a	n/a	51
138.44	0	button press	n/a	n/a	n/a	n/a	n/a	55
138.63	0	button press	n/a	n/a	n/a	n/a	n/a	55
145.25	4.83	CA	0.62	1	0	1	3	n/a
145.87	0	button press	n/a	n/a	n/a	n/a	n/a	51
146.70	0	button press	n/a	n/a	n/a	n/a	n/a	55
146.88	0	button press	n/a	n/a	n/a	n/a	n/a	55
147.07	0	button press	n/a	n/a	n/a	n/a	n/a	55
147.43	0	button press	n/a	n/a	n/a	n/a	n/a	55
151.63	4.83	CC	0.53	6	0	1	1	n/a
152.16	0	button press	n/a	n/a	n/a	n/a	n/a	50
153.14	0	button press	n/a	n/a	n/a	n/a	n/a	54
153.51	0	button press	n/a	n/a	n/a	n/a	n/a	54
153.71	0	button press	n/a	n/a	n/a	n/a	n/a	54
153.91	0	button press	n/a	n/a	n/a	n/a	n/a	54
154.09	0	button press	n/a	n/a	n/a	n/a	n/a	54
158.09	4.83	CC	0.52	6	0	1	1	n/a
158.60	0	button press	n/a	n/a	n/a	n/a	n/a	50
159.54	0	button press	n/a	n/a	n/a	n/a	n/a	54
159.75	0	button press	n/a	n/a	n/a	n/a	n/a	54
159.92	0	button press	n/a	n/a	n/a	n/a	n/a	54
166.76	4.83	CC	0.55	6	0	1	1	n/a
167.31	0	button press	n/a	n/a	n/a	n/a	n/a	50
168.29	0	button press	n/a	n/a	n/a	n/a	n/a	54
168.49	0	button press	n/a	n/a	n/a	n/a	n/a	54
168.66	0	button press	n/a	n/a	n/a	n/a	n/a	54
168.99	0	button press	n/a	n/a	n/a	n/a	n/a	54
172.62	4.83	AA	0.67	2	0	3	3	n/a
173.29	0	button press	n/a	n/a	n/a	n/a	n/a	51
174.37	0	button press	n/a	n/a	n/a	n/a	n/a	55
174.55	0	button press	n/a	n/a	n/a	n/a	n/a	55
174.73	0	button press	n/a	n/a	n/a	n/a	n/a	55
174.87	0	button press	n/a	n/a	n/a	n/a	n/a	55
179.56	4.83	AA	0.67	3	0	3	3	n/a
180.23	0	button press	n/a	n/a	n/a	n/a	n/a	51
181.63	0	button press	n/a	n/a	n/a	n/a	n/a	55
181.86	0	button press	n/a	n/a	n/a	n/a	n/a	55
188.00	4.83	CA	0.60	1	0	1	3	n/a
188.60	0	button press	n/a	n/a	n/a	n/a	n/a	51
189.82	0	button press	n/a	n/a	n/a	n/a	n/a	55
190.13	0	button press	n/a	n/a	n/a	n/a	n/a	55
194.54	4.83	AA	0.62	6	0	3	3	n/a
195.16	0	button press	n/a	n/a	n/a	n/a	n/a	51
196.29	0	button press	n/a	n/a	n/a	n/a	n/a	54
196.51	0	button press	n/a	n/a	n/a	n/a	n/a	54
203.47	4.83	CC	0.78	4	0	1	1	n/a
204.25	0	button press	n/a	n/a	n/a	n/a	n/a	50
205.45	0	button press	n/a	n/a	n/a	n/a	n/a	54
205.75	0	button press	n/a	n/a	n/a	n/a	n/a	54
211.99	4.83	AA	0.65	4	0	3	3	n/a
212.64	0	button press	n/a	n/a	n/a	n/a	n/a	51
213.67	0	button press	n/a	n/a	n/a	n/a	n/a	54
213.91	0	button press	n/a	n/a	n/a	n/a	n/a	54
214.14	0	button press	n/a	n/a	n/a	n/a	n/a	54
219.85	4.83	AA	0.67	3	0	3	3	n/a
220.51	0	button press	n/a	n/a	n/a	n/a	n/a	51
221.71	0	button press	n/a	n/a	n/a	n/a	n/a	55
222.01	0	button press	n/a	n/a	n/a	n/a	n/a	55
227.36	4.83	CA	0.78	1	0	1	3	n/a
228.14	0	button press	n/a	n/a	n/a	n/a	n/a	51
229.24	0	button press	n/a	n/a	n/a	n/a	n/a	55
229.44	0	button press	n/a	n/a	n/a	n/a	n/a	55
233.93	4.83	CC	0.68	5	0	1	1	n/a
234.61	0	button press	n/a	n/a	n/a	n/a	n/a	50
235.78	0	button press	n/a	n/a	n/a	n/a	n/a	54
236.01	0	button press	n/a	n/a	n/a	n/a	n/a	54
239.98	4.83	CC	0.53	4	0	1	1	n/a
240.51	0	button press	n/a	n/a	n/a	n/a	n/a	50
241.49	0	button press	n/a	n/a	n/a	n/a	n/a	54
241.76	0	button press	n/a	n/a	n/a	n/a	n/a	54
241.99	0	button press	n/a	n/a	n/a	n/a	n/a	54
248.95	4.83	CC	0.57	4	0	1	1	n/a
249.51	0	button press	n/a	n/a	n/a	n/a	n/a	50
250.80	0	button press	n/a	n/a	n/a	n/a	n/a	54
251.11	0	button press	n/a	n/a	n/a	n/a	n/a	55
251.55	0	button press	n/a	n/a	n/a	n/a	n/a	55
255.84	4.83	CC	0.57	6	0	1	1	n/a
256.41	0	button press	n/a	n/a	n/a	n/a	n/a	50
257.32	0	button press	n/a	n/a	n/a	n/a	n/a	54
257.54	0	button press	n/a	n/a	n/a	n/a	n/a	54
257.76	0	button press	n/a	n/a	n/a	n/a	n/a	54
257.95	0	button press	n/a	n/a	n/a	n/a	n/a	54
258.14	0	button press	n/a	n/a	n/a	n/a	n/a	54
259.49	0	button press	n/a	n/a	n/a	n/a	n/a	54
261.53	4.83	CC	0.52	6	0	1	1	n/a
262.05	0	button press	n/a	n/a	n/a	n/a	n/a	50
263.03	0	button press	n/a	n/a	n/a	n/a	n/a	54
263.26	0	button press	n/a	n/a	n/a	n/a	n/a	54
263.45	0	button press	n/a	n/a	n/a	n/a	n/a	54
263.63	0	button press	n/a	n/a	n/a	n/a	n/a	54
268.86	4.83	CC	0.77	6	0	1	1	n/a
269.63	0	button press	n/a	n/a	n/a	n/a	n/a	50
270.32	0	button press	n/a	n/a	n/a	n/a	n/a	54
270.72	0	button press	n/a	n/a	n/a	n/a	n/a	54
270.91	0	button press	n/a	n/a	n/a	n/a	n/a	54
271.12	0	button press	n/a	n/a	n/a	n/a	n/a	54
277.08	4.83	CC	0.48	6	0	1	1	n/a
277.57	0	button press	n/a	n/a	n/a	n/a	n/a	50
278.53	0	button press	n/a	n/a	n/a	n/a	n/a	54
278.75	0	button press	n/a	n/a	n/a	n/a	n/a	54
278.93	0	button press	n/a	n/a	n/a	n/a	n/a	54
279.26	0	button press	n/a	n/a	n/a	n/a	n/a	54
279.46	0	button press	n/a	n/a	n/a	n/a	n/a	54
280.11	0	button press	n/a	n/a	n/a	n/a	n/a	54
285.31	4.83	CC	0.52	6	0	1	1	n/a
285.82	0	button press	n/a	n/a	n/a	n/a	n/a	50
287.09	0	button press	n/a	n/a	n/a	n/a	n/a	54
287.34	0	button press	n/a	n/a	n/a	n/a	n/a	54
291.32	4.83	AA	0.88	1	0	3	3	n/a
292.20	0	button press	n/a	n/a	n/a	n/a	n/a	51
293.06	0	button press	n/a	n/a	n/a	n/a	n/a	55
293.26	0	button press	n/a	n/a	n/a	n/a	n/a	55
300.27	4.83	AC	0.83	1	0	3	1	n/a
301.11	0	button press	n/a	n/a	n/a	n/a	n/a	50
302.44	0	button press	n/a	n/a	n/a	n/a	n/a	55
309.06	4.83	CC	0.72	1	0	1	1	n/a
309.78	0	button press	n/a	n/a	n/a	n/a	n/a	50
310.96	0	button press	n/a	n/a	n/a	n/a	n/a	55
311.18	0	button press	n/a	n/a	n/a	n/a	n/a	55
326.89	4.83	NN	0.50	6	1	0	0	n/a
327.39	0	button press	n/a	n/a	n/a	n/a	n/a	50
328.39	0	button press	n/a	n/a	n/a	n/a	n/a	54
328.61	0	button press	n/a	n/a	n/a	n/a	n/a	54
328.77	0	button press	n/a	n/a	n/a	n/a	n/a	54
328.97	0	button press	n/a	n/a	n/a	n/a	n/a	54
329.16	0	button press	n/a	n/a	n/a	n/a	n/a	54
329.32	0	button press	n/a	n/a	n/a	n/a	n/a	54
333.22	4.83	YN	0.50	6	1	1	0	n/a
333.72	0	button press	n/a	n/a	n/a	n/a	n/a	50
334.67	0	button press	n/a	n/a	n/a	n/a	n/a	54
334.87	0	button press	n/a	n/a	n/a	n/a	n/a	54
335.38	0	button press	n/a	n/a	n/a	n/a	n/a	54
335.71	0	button press	n/a	n/a	n/a	n/a	n/a	54
336.36	0	button press	n/a	n/a	n/a	n/a	n/a	54
336.53	0	button press	n/a	n/a	n/a	n/a	n/a	54
336.70	0	button press	n/a	n/a	n/a	n/a	n/a	54
342.07	4.83	YN	0.55	2	1	3	0	n/a
342.62	0	button press	n/a	n/a	n/a	n/a	n/a	50
344.01	0	button press	n/a	n/a	n/a	n/a	n/a	55
344.21	0	button press	n/a	n/a	n/a	n/a	n/a	55
344.41	0	button press	n/a	n/a	n/a	n/a	n/a	55
350.20	4.83	YY	0.58	6	1	3	1	n/a
350.78	0	button press	n/a	n/a	n/a	n/a	n/a	51
351.65	0	button press	n/a	n/a	n/a	n/a	n/a	54
351.91	0	button press	n/a	n/a	n/a	n/a	n/a	54
352.18	0	button press	n/a	n/a	n/a	n/a	n/a	54
356.61	4.83	NN	0.80	6	1	0	0	n/a
357.41	0	button press	n/a	n/a	n/a	n/a	n/a	50
358.24	0	button press	n/a	n/a	n/a	n/a	n/a	54
358.49	0	button press	n/a	n/a	n/a	n/a	n/a	54
358.71	0	button press	n/a	n/a	n/a	n/a	n/a	54
358.89	0	button press	n/a	n/a	n/a	n/a	n/a	54
365.21	4.83	NN	0.65	6	1	0	0	n/a
365.86	0	button press	n/a	n/a	n/a	n/a	n/a	50
366.86	0	button press	n/a	n/a	n/a	n/a	n/a	54
367.08	0	button press	n/a	n/a	n/a	n/a	n/a	54
367.26	0	button press	n/a	n/a	n/a	n/a	n/a	54
371.97	4.83	NN	0.52	6	1	0	0	n/a
372.49	0	button press	n/a	n/a	n/a	n/a	n/a	50
373.51	0	button press	n/a	n/a	n/a	n/a	n/a	54
373.74	0	button press	n/a	n/a	n/a	n/a	n/a	54
373.92	0	button press	n/a	n/a	n/a	n/a	n/a	54
374.14	0	button press	n/a	n/a	n/a	n/a	n/a	54
374.32	0	button press	n/a	n/a	n/a	n/a	n/a	54
374.52	0	button press	n/a	n/a	n/a	n/a	n/a	54
378.12	4.83	NN	0.52	6	1	0	0	n/a
378.63	0	button press	n/a	n/a	n/a	n/a	n/a	50
379.78	0	button press	n/a	n/a	n/a	n/a	n/a	54
380.03	0	button press	n/a	n/a	n/a	n/a	n/a	54
380.23	0	button press	n/a	n/a	n/a	n/a	n/a	54
380.45	0	button press	n/a	n/a	n/a	n/a	n/a	54
380.63	0	button press	n/a	n/a	n/a	n/a	n/a	54
383.76	4.83	NN	0.55	6	1	0	0	n/a
384.31	0	button press	n/a	n/a	n/a	n/a	n/a	50
385.36	0	button press	n/a	n/a	n/a	n/a	n/a	54
385.62	0	button press	n/a	n/a	n/a	n/a	n/a	54
385.82	0	button press	n/a	n/a	n/a	n/a	n/a	54
386.03	0	button press	n/a	n/a	n/a	n/a	n/a	54
390.47	4.83	YY	0.68	6	1	3	1	n/a
391.15	0	button press	n/a	n/a	n/a	n/a	n/a	51
392.22	0	button press	n/a	n/a	n/a	n/a	n/a	54
392.47	0	button press	n/a	n/a	n/a	n/a	n/a	54
392.65	0	button press	n/a	n/a	n/a	n/a	n/a	54
392.87	0	button press	n/a	n/a	n/a	n/a	n/a	54
398.09	4.83	NN	0.67	6	1	0	0	n/a
398.76	0	button press	n/a	n/a	n/a	n/a	n/a	50
399.94	0	button press	n/a	n/a	n/a	n/a	n/a	54
400.17	0	button press	n/a	n/a	n/a	n/a	n/a	54
400.39	0	button press	n/a	n/a	n/a	n/a	n/a	54
400.61	0	button press	n/a	n/a	n/a	n/a	n/a	54
400.79	0	button press	n/a	n/a	n/a	n/a	n/a	54
405.04	4.83	NN	0.63	6	1	0	0	n/a
405.67	0	button press	n/a	n/a	n/a	n/a	n/a	50
406.67	0	button press	n/a	n/a	n/a	n/a	n/a	54
406.88	0	button press	n/a	n/a	n/a	n/a	n/a	54
407.08	0	button press	n/a	n/a	n/a	n/a	n/a	54
413.03	4.83	YY	0.93	6	1	1	1	n/a
413.96	0	button press	n/a	n/a	n/a	n/a	n/a	51
414.96	0	button press	n/a	n/a	n/a	n/a	n/a	54
418.69	4.83	YY	1.27	1	1	1	1	n/a
419.95	0	button press	n/a	n/a	n/a	n/a	n/a	51
425.91	4.83	YN	1.42	2	1	3	0	n/a
427.33	0	button press	n/a	n/a	n/a	n/a	n/a	50
428.14	0	button press	n/a	n/a	n/a	n/a	n/a	55
432.47	4.83	NN	0.62	6	1	0	0	n/a
433.09	0	button press	n/a	n/a	n/a	n/a	n/a	50
434.17	0	button press	n/a	n/a	n/a	n/a	n/a	54
434.38	0	button press	n/a	n/a	n/a	n/a	n/a	54
440.10	4.83	NN	0.60	6	1	0	0	n/a
440.69	0	button press	n/a	n/a	n/a	n/a	n/a	50
441.94	0	button press	n/a	n/a	n/a	n/a	n/a	54
442.16	0	button press	n/a	n/a	n/a	n/a	n/a	54
448.75	4.83	NN	0.62	6	1	0	0	n/a
449.37	0	button press	n/a	n/a	n/a	n/a	n/a	50
450.47	0	button press	n/a	n/a	n/a	n/a	n/a	54
450.73	0	button press	n/a	n/a	n/a	n/a	n/a	54
450.94	0	button press	n/a	n/a	n/a	n/a	n/a	54
451.13	0	button press	n/a	n/a	n/a	n/a	n/a	54
457.64	4.83	YY	0.70	6	1	3	1	n/a
458.34	0	button press	n/a	n/a	n/a	n/a	n/a	51
459.36	0	button press	n/a	n/a	n/a	n/a	n/a	54
459.59	0	button press	n/a	n/a	n/a	n/a	n/a	54
463.30	4.83	YY	0.72	6	1	3	1	n/a
464.02	0	button press	n/a	n/a	n/a	n/a	n/a	51
465.17	0	button press	n/a	n/a	n/a	n/a	n/a	54
465.37	0	button press	n/a	n/a	n/a	n/a	n/a	54
465.53	0	button press	n/a	n/a	n/a	n/a	n/a	54
466.07	0	button press	n/a	n/a	n/a	n/a	n/a	54
466.23	0	button press	n/a	n/a	n/a	n/a	n/a	54
466.43	0	button press	n/a	n/a	n/a	n/a	n/a	54
469.38	4.83	NN	0.67	6	1	0	0	n/a
470.04	0	button press	n/a	n/a	n/a	n/a	n/a	50
470.99	0	button press	n/a	n/a	n/a	n/a	n/a	54
471.19	0	button press	n/a	n/a	n/a	n/a	n/a	54
471.39	0	button press	n/a	n/a	n/a	n/a	n/a	54
475.02	4.83	NN	0.55	6	1	0	0	n/a
475.57	0	button press	n/a	n/a	n/a	n/a	n/a	50
476.39	0	button press	n/a	n/a	n/a	n/a	n/a	54
476.60	0	button press	n/a	n/a	n/a	n/a	n/a	54
476.80	0	button press	n/a	n/a	n/a	n/a	n/a	54
476.99	0	button press	n/a	n/a	n/a	n/a	n/a	54
477.19	0	button press	n/a	n/a	n/a	n/a	n/a	54
477.40	0	button press	n/a	n/a	n/a	n/a	n/a	54
483.03	4.83	YN	0.55	6	1	1	0	n/a
483.58	0	button press	n/a	n/a	n/a	n/a	n/a	50
484.69	0	button press	n/a	n/a	n/a	n/a	n/a	54
484.93	0	button press	n/a	n/a	n/a	n/a	n/a	54
485.13	0	button press	n/a	n/a	n/a	n/a	n/a	54
485.31	0	button press	n/a	n/a	n/a	n/a	n/a	54
491.07	4.83	YN	0.55	6	1	1	0	n/a
491.62	0	button press	n/a	n/a	n/a	n/a	n/a	50
492.78	0	button press	n/a	n/a	n/a	n/a	n/a	54
492.98	0	button press	n/a	n/a	n/a	n/a	n/a	54
493.15	0	button press	n/a	n/a	n/a	n/a	n/a	54
497.64	4.83	YY	0.55	6	1	3	1	n/a
498.19	0	button press	n/a	n/a	n/a	n/a	n/a	51
499.28	0	button press	n/a	n/a	n/a	n/a	n/a	54
499.51	0	button press	n/a	n/a	n/a	n/a	n/a	54
499.68	0	button press	n/a	n/a	n/a	n/a	n/a	54
499.88	0	button press	n/a	n/a	n/a	n/a	n/a	54
500.23	0	button press	n/a	n/a	n/a	n/a	n/a	54
504.52	4.83	NN	0.55	6	1	0	0	n/a
505.07	0	button press	n/a	n/a	n/a	n/a	n/a	50
506.00	0	button press	n/a	n/a	n/a	n/a	n/a	54
506.24	0	button press	n/a	n/a	n/a	n/a	n/a	54
506.42	0	button press	n/a	n/a	n/a	n/a	n/a	54
513.23	4.83	YY	0.67	6	1	3	1	n/a
513.89	0	button press	n/a	n/a	n/a	n/a	n/a	51
514.91	0	button press	n/a	n/a	n/a	n/a	n/a	54
515.13	0	button press	n/a	n/a	n/a	n/a	n/a	54
515.29	0	button press	n/a	n/a	n/a	n/a	n/a	54
522.13	4.83	YN	0.87	2	1	1	0	n/a
523.00	0	button press	n/a	n/a	n/a	n/a	n/a	50
523.88	0	button press	n/a	n/a	n/a	n/a	n/a	54
524.11	0	button press	n/a	n/a	n/a	n/a	n/a	54
525.06	0	button press	n/a	n/a	n/a	n/a	n/a	55
525.25	0	button press	n/a	n/a	n/a	n/a	n/a	55
529.83	4.83	NY	0.67	1	1	0	1	n/a
530.49	0	button press	n/a	n/a	n/a	n/a	n/a	51
531.39	0	button press	n/a	n/a	n/a	n/a	n/a	55
531.62	0	button press	n/a	n/a	n/a	n/a	n/a	55
537.63	4.83	NN	0.53	6	1	0	0	n/a
538.17	0	button press	n/a	n/a	n/a	n/a	n/a	50
539.18	0	button press	n/a	n/a	n/a	n/a	n/a	54
539.40	0	button press	n/a	n/a	n/a	n/a	n/a	54
539.58	0	button press	n/a	n/a	n/a	n/a	n/a	54
539.76	0	button press	n/a	n/a	n/a	n/a	n/a	54
539.93	0	button press	n/a	n/a	n/a	n/a	n/a	54
540.41	0	button press	n/a	n/a	n/a	n/a	n/a	54
543.89	4.83	YN	0.47	6	1	1	0	n/a
544.36	0	button press	n/a	n/a	n/a	n/a	n/a	50
545.97	0	button press	n/a	n/a	n/a	n/a	n/a	55
546.17	0	button press	n/a	n/a	n/a	n/a	n/a	54
546.39	0	button press	n/a	n/a	n/a	n/a	n/a	54
546.76	0	button press	n/a	n/a	n/a	n/a	n/a	54
546.94	0	button press	n/a	n/a	n/a	n/a	n/a	54
547.10	0	button press	n/a	n/a	n/a	n/a	n/a	54
552.50	4.83	YN	0.57	6	1	1	0	n/a
553.06	0	button press	n/a	n/a	n/a	n/a	n/a	50
554.13	0	button press	n/a	n/a	n/a	n/a	n/a	54
554.36	0	button press	n/a	n/a	n/a	n/a	n/a	54
554.53	0	button press	n/a	n/a	n/a	n/a	n/a	54
554.71	0	button press	n/a	n/a	n/a	n/a	n/a	54
554.88	0	button press	n/a	n/a	n/a	n/a	n/a	54
558.76	4.83	YN	0.50	1	1	3	0	n/a
559.26	0	button press	n/a	n/a	n/a	n/a	n/a	50
560.11	0	button press	n/a	n/a	n/a	n/a	n/a	55
560.32	0	button press	n/a	n/a	n/a	n/a	n/a	55
560.51	0	button press	n/a	n/a	n/a	n/a	n/a	55
561.11	0	button press	n/a	n/a	n/a	n/a	n/a	55
567.70	4.83	NN	0.78	6	1	0	0	n/a
568.48	0	button press	n/a	n/a	n/a	n/a	n/a	50
569.51	0	button press	n/a	n/a	n/a	n/a	n/a	54
569.73	0	button press	n/a	n/a	n/a	n/a	n/a	54
574.59	4.83	NN	0.65	6	1	0	0	n/a
575.24	0	button press	n/a	n/a	n/a	n/a	n/a	50
576.26	0	button press	n/a	n/a	n/a	n/a	n/a	54
576.49	0	button press	n/a	n/a	n/a	n/a	n/a	54
576.69	0	button press	n/a	n/a	n/a	n/a	n/a	54
581.67	4.83	NN	0.60	6	1	0	0	n/a
582.26	0	button press	n/a	n/a	n/a	n/a	n/a	50
583.48	0	button press	n/a	n/a	n/a	n/a	n/a	54
583.70	0	button press	n/a	n/a	n/a	n/a	n/a	54
583.88	0	button press	n/a	n/a	n/a	n/a	n/a	54
584.10	0	button press	n/a	n/a	n/a	n/a	n/a	54
590.72	4.83	YN	0.52	2	1	1	0	n/a
591.24	0	button press	n/a	n/a	n/a	n/a	n/a	50
592.60	0	button press	n/a	n/a	n/a	n/a	n/a	55
593.00	0	button press	n/a	n/a	n/a	n/a	n/a	55
599.48	4.83	YY	0.82	2	1	1	1	n/a
600.29	0	button press	n/a	n/a	n/a	n/a	n/a	51
601.71	0	button press	n/a	n/a	n/a	n/a	n/a	54
605.11	4.83	NN	0.85	1	1	0	0	n/a
605.95	0	button press	n/a	n/a	n/a	n/a	n/a	50
608.35	0	button press	n/a	n/a	n/a	n/a	n/a	55
611.61	4.83	YY	0.82	5	1	3	1	n/a
612.43	0	button press	n/a	n/a	n/a	n/a	n/a	51
613.43	0	button press	n/a	n/a	n/a	n/a	n/a	54
613.66	0	button press	n/a	n/a	n/a	n/a	n/a	54
613.89	0	button press	n/a	n/a	n/a	n/a	n/a	54
